Time	Device name	Chip Time()	Acceleration X(g)	Acceleration Y(g)	Acceleration Z(g)	Angular velocity X(°/s)	Angular velocity Y(°/s)	Angular velocity Z(°/s)	Angle X(°)	Angle Y(°)	Angle Z(°)	Magnetic field X(ʯt)	Magnetic field Y(ʯt)	Magnetic field Z(ʯt)	Temperature(℃)	Pressure(Pa)	Height(m)	Longitude()	Latitude()	GPS ground speed(km)	Angle of course(°)	GPS height(m)	Number of satellites()	Position location()	Horizontal position()	Vertical position()	Quaternions 0()	Quaternions 1()	Quaternions 2()	Quaternions 3()
 09:06:24.401	COM12	2024-09-20 13:51:29.204	-0,013	-0,002	0,999	-0,061	0,000	0,000	-0,478	0,527	163,614	97,383	44,252	47,645	19,51	96531	408,55														
 09:06:24.491	COM12	2024-09-20 13:51:29.304	-0,014	-0,006	0,999	0,000	0,000	0,000	-0,483	0,533	163,614	97,435	44,551	47,788	19,47	96530	408,64														
 09:06:24.600	COM12	2024-09-20 13:51:29.404	-0,014	-0,005	1,000	0,000	0,000	0,000	-0,483	0,533	163,614	97,487	44,707	47,866	19,51	96530	408,64														
 09:06:24.694	COM12	2024-09-20 13:51:29.504	-0,014	-0,006	0,999	0,000	0,000	0,000	-0,489	0,533	163,614	97,487	44,733	47,879	19,52	96530	408,64														
 09:06:24.801	COM12	2024-09-20 13:51:29.604	-0,013	-0,005	0,999	0,000	-0,061	0,000	-0,489	0,538	163,614	97,487	44,733	47,892	19,47	96530	408,64														
 09:06:24.894	COM12	2024-09-20 13:51:29.704	-0,013	-0,007	0,999	0,000	0,000	0,000	-0,494	0,538	163,614	97,487	44,733	47,905	19,49	96530	408,64														
 09:06:25.003	COM12	2024-09-20 13:51:29.804	-0,013	-0,006	1,000	0,000	0,000	0,000	-0,494	0,533	163,614	97,500	44,746	47,905	19,47	96530	408,64														
 09:06:25.096	COM12	2024-09-20 13:51:29.904	-0,014	-0,006	0,999	0,000	-0,061	0,000	-0,494	0,533	163,614	97,513	44,733	47,931	19,49	96530	408,64														
 09:06:25.190	COM12	2024-09-20 13:51:30.004	-0,010	-0,004	0,999	-0,061	0,000	0,000	-0,500	0,538	163,614	97,513	44,733	47,957	19,47	96530	408,64														
 09:06:25.299	COM12	2024-09-20 13:51:30.104	-0,013	-0,010	1,000	-0,122	0,061	0,732	-0,494	0,549	163,663	97,721	45,084	48,386	19,44	96530	408,64														
 09:06:25.392	COM12	2024-09-20 13:51:30.204	-0,015	-0,008	0,999	0,000	-0,061	0,000	-0,500	0,549	163,685	97,916	45,487	48,776	19,51	96530	408,64														
 09:06:25.501	COM12	2024-09-20 13:51:30.304	-0,013	-0,006	0,999	0,000	0,000	0,000	-0,505	0,544	163,685	97,968	45,539	48,880	19,47	96530	408,64														
 09:06:25.594	COM12	2024-09-20 13:51:30.404	-0,014	-0,005	0,999	0,061	-0,122	0,000	-0,500	0,533	163,685	97,994	45,461	48,945	19,46	96530	408,64														
 09:06:25.702	COM12	2024-09-20 13:51:30.504	-0,013	-0,005	0,999	-0,061	-0,183	0,000	-0,505	0,527	163,685	98,020	45,409	48,984	19,49	96530	408,64														
 09:06:25.796	COM12	2024-09-20 13:51:30.604	-0,013	-0,005	0,999	-0,061	0,000	0,000	-0,505	0,533	163,685	98,033	45,383	49,023	19,51	96530	408,64														
 09:06:25.888	COM12	2024-09-20 13:51:30.704	-0,014	-0,005	0,999	-0,122	-0,061	0,000	-0,511	0,533	163,685	98,033	45,370	49,023	19,46	96530	408,64														
 09:06:25.997	COM12	2024-09-20 13:51:30.804	-0,013	-0,006	0,999	0,000	-0,061	0,000	-0,511	0,533	163,685	98,020	45,383	49,023	19,46	96530	408,64														
 09:06:26.089	COM12	2024-09-20 13:51:30.904	-0,013	-0,005	0,999	-0,061	0,000	0,000	-0,511	0,533	163,685	98,020	45,383	49,023	19,46	96530	408,64														
 09:06:26.197	COM12	2024-09-20 13:51:31.004	-0,013	-0,006	1,000	0,000	-0,122	0,000	-0,516	0,527	163,685	98,007	45,396	49,010	19,46	96530	408,64														
 09:06:26.290	COM12	2024-09-20 13:51:31.104	-0,013	-0,006	0,999	0,000	0,000	0,000	-0,516	0,522	163,685	97,994	45,396	49,010	19,46	96530	408,64														
 09:06:26.397	COM12	2024-09-20 13:51:31.204	-0,013	-0,006	0,999	-0,061	0,000	0,000	-0,516	0,527	163,685	97,994	45,409	48,997	19,49	96530	408,64														
 09:06:26.490	COM12	2024-09-20 13:51:31.304	-0,013	-0,005	0,999	0,000	0,000	0,000	-0,516	0,527	163,685	97,994	45,422	48,984	19,47	96530	408,64														
 09:06:26.601	COM12	2024-09-20 13:51:31.404	-0,013	-0,005	0,999	0,000	0,000	0,000	-0,516	0,527	163,685	97,994	45,409	48,997	19,51	96530	408,64														
 09:06:26.695	COM12	2024-09-20 13:51:31.504	-0,012	-0,006	0,999	0,000	0,000	0,000	-0,516	0,533	163,685	98,007	45,409	48,997	19,46	96530	408,64														
 09:06:26.803	COM12	2024-09-20 13:51:31.604	-0,013	-0,006	0,998	0,000	0,000	0,000	-0,511	0,538	163,685	97,981	45,409	48,997	19,44	96530	408,64														
 09:06:26.896	COM12	2024-09-20 13:51:31.704	-0,013	-0,006	1,000	0,000	0,000	0,000	-0,511	0,544	163,685	97,981	45,422	48,997	19,49	96530	408,64														
 09:06:26.989	COM12	2024-09-20 13:51:31.804	-0,013	-0,006	0,999	0,000	0,000	0,000	-0,511	0,544	163,685	97,981	45,422	49,010	19,49	96530	408,64														
 09:06:27.095	COM12	2024-09-20 13:51:31.904	-0,013	-0,006	0,999	0,000	0,000	0,000	-0,511	0,549	163,685	97,981	45,422	48,997	19,47	96530	408,64														
 09:06:27.202	COM12	2024-09-20 13:51:32.004	-0,013	-0,006	0,999	0,000	0,000	0,000	-0,505	0,549	163,685	97,968	45,409	48,997	19,47	96530	408,64														
 09:06:27.297	COM12	2024-09-20 13:51:32.104	-0,013	-0,005	0,998	0,000	0,000	0,000	-0,505	0,549	163,685	97,968	45,422	48,997	19,49	96530	408,64														
 09:06:27.390	COM12	2024-09-20 13:51:32.204	-0,013	-0,005	0,999	0,000	0,000	0,000	-0,505	0,555	163,685	97,955	45,435	48,997	19,47	96530	408,64														
 09:06:27.498	COM12	2024-09-20 13:51:32.304	-0,012	-0,005	0,999	0,000	0,000	0,000	-0,505	0,555	163,685	97,968	45,422	48,997	19,47	96530	408,64														
 09:06:27.591	COM12	2024-09-20 13:51:32.404	-0,013	-0,006	1,000	0,000	0,000	0,000	-0,505	0,555	163,685	97,968	45,422	48,997	19,47	96530	408,64														
 09:06:27.699	COM12	2024-09-20 13:51:32.504	-0,012	-0,005	0,999	0,000	0,000	0,000	-0,500	0,560	163,685	97,968	45,422	48,997	19,51	96530	408,64														
 09:06:27.793	COM12	2024-09-20 13:51:32.604	-0,012	-0,006	0,999	0,000	0,000	0,000	-0,500	0,560	163,685	97,981	45,422	48,997	19,47	96530	408,64														
 09:06:27.901	COM12	2024-09-20 13:51:32.704	-0,012	-0,005	1,000	0,000	0,000	0,000	-0,500	0,560	163,685	97,981	45,422	49,010	19,47	96530	408,64														
 09:06:27.993	COM12	2024-09-20 13:51:32.804	-0,013	-0,005	0,999	0,000	0,000	0,000	-0,500	0,560	163,685	97,968	45,422	48,997	19,49	96530	408,64														
 09:06:28.103	COM12	2024-09-20 13:51:32.904	-0,013	-0,006	1,000	0,000	0,000	0,000	-0,500	0,566	163,685	97,994	45,409	49,010	19,47	96530	408,64														
 09:06:28.197	COM12	2024-09-20 13:51:33.004	-0,013	-0,006	1,000	0,000	0,000	0,000	-0,500	0,566	163,685	97,968	45,422	49,010	19,49	96530	408,64														
 09:06:28.291	COM12	2024-09-20 13:51:33.104	-0,013	-0,006	0,999	0,000	0,000	0,000	-0,500	0,566	163,685	97,968	45,435	48,997	19,47	96530	408,64														
 09:06:28.405	COM12	2024-09-20 13:51:33.204	-0,013	-0,005	1,000	0,000	0,000	0,000	-0,494	0,566	163,685	97,981	45,409	49,010	19,51	96530	408,64														
 09:06:28.493	COM12	2024-09-20 13:51:33.304	-0,014	-0,006	0,999	0,000	0,000	0,000	-0,494	0,571	163,685	97,981	45,422	49,010	19,51	96530	408,64														
 09:06:28.601	COM12	2024-09-20 13:51:33.404	-0,011	-0,006	0,999	0,000	0,000	0,000	-0,494	0,571	163,685	97,968	45,448	48,997	19,47	96530	408,64														
 09:06:28.694	COM12	2024-09-20 13:51:33.504	-0,012	-0,004	0,999	0,000	0,305	0,916	-0,494	0,582	163,707	97,994	45,500	49,062	19,49	96530	408,64														
 09:06:28.802	COM12	2024-09-20 13:51:33.604	-0,013	0,032	0,999	-0,244	0,366	1,831	-0,494	0,626	163,795	98,163	46,176	49,231	19,49	96530	408,64														
 09:06:28.896	COM12	2024-09-20 13:51:33.704	-0,017	0,008	1,000	0,000	0,244	2,319	-0,428	0,637	164,053	95,940	53,755	42,380	19,51	96530	408,64														
 09:06:28.989	COM12	2024-09-20 13:51:33.804	-0,015	0,000	0,999	-0,427	0,305	1,038	-0,390	0,643	164,240	90,077	68,640	26,416	19,47	96530	408,64														
 09:06:29.095	COM12	2024-09-20 13:51:33.904	-0,018	0,012	1,000	-0,305	-0,061	4,028	-0,396	0,665	164,410	81,744	86,541	3,913	19,51	96530	408,64														
 09:06:29.187	COM12	2024-09-20 13:51:34.004	-0,017	-0,010	0,999	-0,305	-0,244	0,427	-0,352	0,654	164,515	69,342	107,692	-26,494	19,46	96530	408,64														
 09:06:29.299	COM12	2024-09-20 13:51:34.104	-0,017	-0,001	0,999	-0,549	0,000	2,625	-0,308	0,643	164,691	51,038	130,130	-71,175	19,54	96530	408,64														
 09:06:29.391	COM12	2024-09-20 13:51:34.204	-0,017	-0,018	0,999	0,000	-0,122	0,122	-0,286	0,654	164,861	29,250	153,985	-127,452	19,44	96530	408,64														
 09:06:29.499	COM12	2024-09-20 13:51:34.304	-0,016	-0,006	0,999	0,000	-0,244	0,000	-0,291	0,643	164,883	3,666	178,893	-195,052	19,46	96530	408,64														
 09:06:29.594	COM12	2024-09-20 13:51:34.404	-0,016	-0,006	0,998	-0,061	0,366	0,549	-0,302	0,659	164,993	-26,650	202,098	-271,739	19,51	96529	408,72														
 09:06:29.688	COM12	2024-09-20 13:51:34.504	-0,016	-0,015	1,000	-0,183	0,427	-0,183	-0,319	0,692	165,042	-65,273	223,808	-346,593	19,49	96528	408,81														
 09:06:29.796	COM12	2024-09-20 13:51:34.604	-0,011	-0,010	0,999	0,000	0,244	0,732	-0,363	0,709	165,086	-107,770	234,000	-403,819	19,49	96530	408,64														
 09:06:29.890	COM12	2024-09-20 13:51:34.704	-0,017	0,010	1,001	-0,305	-0,061	3,357	-0,363	0,709	165,278	-148,889	228,293	307,099	19,51	96529	408,72														
 09:06:29.999	COM12	2024-09-20 13:51:34.804	-0,010	0,002	1,000	-0,183	0,122	3,113	-0,352	0,725	165,553	-187,330	198,679	378,053	19,47	96529	408,72														
 09:06:30.092	COM12	2024-09-20 13:51:34.904	-0,019	0,017	1,000	-0,549	0,000	8,911	-0,346	0,742	166,025	-218,686	144,872	386,867	19,47	96528	408,81														
 09:06:30.187	COM12	2024-09-20 13:51:35.004	-0,029	-0,007	0,999	-0,183	0,000	0,061	-0,324	0,769	166,289	-235,261	59,748	390,091	19,44	96528	408,81														
 09:06:30.297	COM12	2024-09-20 13:51:35.104	-0,030	-0,029	0,997	0,061	-0,183	0,488	-0,346	0,775	166,371	-216,021	-54,847	390,754	19,46	96530	408,64														
 09:06:30.391	COM12	2024-09-20 13:51:35.204	-0,019	-0,077	0,995	-0,305	0,244	0,244	-0,374	0,797	166,421	-162,240	-160,095	-119,600	19,51	96529	408,72														
 09:06:30.499	COM12	2024-09-20 13:51:35.304	-0,027	-0,017	1,000	-0,366	0,183	2,258	-0,423	0,813	166,547	-95,875	-225,303	-284,115	19,49	96529	408,72														
 09:06:30.594	COM12	2024-09-20 13:51:35.404	-0,017	-0,068	0,996	-0,305	0,000	0,183	-0,461	0,840	166,778	-42,224	-247,767	-197,808	19,49	96528	408,81														
 09:06:30.688	COM12	2024-09-20 13:51:35.504	-0,021	-0,010	0,999	-0,122	0,183	1,892	-0,527	0,851	166,871	7,592	-255,255	-62,660	19,46	96529	408,72														
 09:06:30.797	COM12	2024-09-20 13:51:35.604	-0,018	-0,024	1,000	-0,366	-0,061	0,122	-0,577	0,868	166,970	55,926	-258,440	76,947	19,46	96530	408,64														
 09:06:30.890	COM12	2024-09-20 13:51:35.704	-0,018	-0,022	0,999	0,061	0,122	0,305	-0,637	0,873	167,047	93,353	-248,352	174,863	19,51	96530	408,64														
 09:06:30.999	COM12	2024-09-20 13:51:35.804	-0,021	-0,025	0,999	-0,366	0,000	0,000	-0,692	0,890	167,075	119,613	-231,205	234,572	19,51	96530	408,64														
 09:06:31.093	COM12	2024-09-20 13:51:35.904	-0,022	-0,043	0,998	0,061	0,183	0,244	-0,753	0,901	167,124	139,958	-215,800	277,771	19,47	96529	408,72														
 09:06:31.201	COM12	2024-09-20 13:51:36.004	-0,021	-0,045	0,999	-0,061	0,244	1,160	-0,829	0,917	167,173	161,278	-204,269	316,836	19,51	96528	408,81														
 09:06:31.296	COM12	2024-09-20 13:51:36.104	-0,022	-0,038	0,999	-0,122	-0,061	0,183	-0,928	0,945	167,223	180,245	-195,975	345,358	19,54	96529	408,72														
 09:06:31.388	COM12	2024-09-20 13:51:36.204	-0,015	-0,029	0,998	0,061	0,122	0,000	-1,016	0,961	167,250	193,453	-189,852	362,076	19,51	96529	408,72														
 09:06:31.498	COM12	2024-09-20 13:51:36.304	-0,017	-0,008	0,999	0,122	0,122	-0,061	-1,071	0,972	167,256	201,890	-184,769	372,034	19,49	96529	408,72														
 09:06:31.590	COM12	2024-09-20 13:51:36.404	-0,019	-0,010	0,999	0,122	0,122	0,061	-1,071	0,972	167,256	209,534	-178,789	380,354	19,49	96529	408,72														
 09:06:31.697	COM12	2024-09-20 13:51:36.504	-0,029	-0,021	0,999	0,061	0,122	0,244	-1,060	0,978	167,272	216,710	-171,431	388,232	19,47	96529	408,72														
 09:06:31.790	COM12	2024-09-20 13:51:36.604	-0,018	-0,094	0,996	0,671	0,122	1,160	-1,082	0,978	167,316	222,131	-165,165	394,199	19,49	96529	408,72														
 09:06:31.899	COM12	2024-09-20 13:51:36.704	-0,018	-0,018	0,999	0,244	-0,061	0,000	-1,099	1,016	167,492	223,106	-160,706	396,838	19,54	96529	408,72														
 09:06:31.991	COM12	2024-09-20 13:51:36.804	-0,018	-0,015	0,999	0,061	0,061	0,061	-1,104	1,011	167,492	223,158	-159,627	397,345	19,51	96530	408,64														
 09:06:32.099	COM12	2024-09-20 13:51:36.904	-0,018	-0,014	0,999	0,061	0,061	0,061	-1,104	1,016	167,498	223,093	-159,523	397,449	19,49	96530	408,64														
 09:06:32.191	COM12	2024-09-20 13:51:37.004	-0,018	-0,014	0,999	0,122	0,000	0,000	-1,093	1,011	167,503	223,015	-159,549	397,501	19,49	96530	408,64														
 09:06:32.302	COM12	2024-09-20 13:51:37.104	-0,019	-0,014	0,999	0,061	0,000	0,000	-1,077	1,005	167,503	222,950	-159,588	397,527	19,57	96530	408,64														
 09:06:32.395	COM12	2024-09-20 13:51:37.204	-0,018	-0,014	0,999	0,122	0,122	0,000	-1,066	1,005	167,514	222,846	-159,627	397,579	19,49	96530	408,64														
 09:06:32.489	COM12	2024-09-20 13:51:37.304	-0,019	-0,015	0,999	0,122	0,122	0,000	-1,055	1,005	167,514	222,742	-159,653	397,631	19,49	96530	408,64														
 09:06:32.597	COM12	2024-09-20 13:51:37.404	-0,019	-0,015	0,999	0,061	0,122	0,000	-1,044	1,005	167,514	222,664	-159,653	397,644	19,51	96530	408,64														
 09:06:32.690	COM12	2024-09-20 13:51:37.504	-0,018	-0,015	0,999	0,122	0,061	0,000	-1,027	1,000	167,514	222,638	-159,666	397,657	19,51	96530	408,64														
 09:06:32.799	COM12	2024-09-20 13:51:37.604	-0,020	-0,015	0,998	0,122	0,000	0,000	-1,016	0,994	167,514	222,586	-159,731	397,696	19,51	96530	408,64														
 09:06:32.892	COM12	2024-09-20 13:51:37.704	-0,020	-0,020	0,999	0,061	0,183	2,014	-1,005	1,000	167,657	221,416	-160,277	397,956	19,51	96530	408,64														
 09:06:33.001	COM12	2024-09-20 13:51:37.804	-0,021	-0,029	0,999	0,183	0,061	0,549	-1,011	1,000	167,723	219,154	-162,916	397,085	19,52	96530	408,64														
 09:06:33.095	COM12	2024-09-20 13:51:37.904	-0,020	-0,029	0,999	0,305	0,000	0,305	-1,033	1,005	167,745	214,305	-169,455	392,587	19,46	96530	408,64														
 09:06:33.189	COM12	2024-09-20 13:51:38.004	-0,022	-0,029	0,999	0,244	0,183	0,122	-1,093	1,016	167,745	204,763	-180,583	382,642	19,49	96531	408,55														
 09:06:33.297	COM12	2024-09-20 13:51:38.104	-0,019	-0,034	0,998	0,122	0,000	0,000	-1,137	1,016	167,739	190,632	-192,231	366,925	19,49	96531	408,55														
 09:06:33.390	COM12	2024-09-20 13:51:38.204	-0,022	-0,021	0,999	0,610	-0,061	0,366	-1,143	1,022	167,750	173,225	-202,254	345,072	19,54	96532	408,47														
 09:06:33.498	COM12	2024-09-20 13:51:38.304	-0,025	-0,041	0,998	0,244	0,061	1,343	-1,148	1,038	167,838	154,024	-212,160	317,304	19,52	96531	408,55														
 09:06:33.589	COM12	2024-09-20 13:51:38.404	-0,034	-0,044	0,995	0,427	0,122	3,845	-1,181	1,055	168,025	134,966	-224,601	284,232	19,52	96532	408,47														
 09:06:33.699	COM12	2024-09-20 13:51:38.504	-0,019	-0,055	0,995	0,244	0,122	0,061	-1,181	1,077	168,690	112,437	-241,709	244,699	19,47	96531	408,55														
 09:06:33.790	COM12	2024-09-20 13:51:38.604	-0,029	-0,012	0,999	0,244	-0,122	0,122	-1,154	1,071	168,695	87,841	-257,257	190,346	19,47	96531	408,55														
 09:06:33.897	COM12	2024-09-20 13:51:38.704	-0,021	-0,039	0,997	0,122	0,732	3,479	-1,115	1,099	168,865	55,861	-266,747	104,052	19,52	96531	408,55														
 09:06:33.990	COM12	2024-09-20 13:51:38.804	-0,016	-0,016	0,999	0,488	0,122	1,709	-1,093	1,099	168,981	14,794	-265,408	-27,729	19,51	96531	408,55														
 09:06:34.098	COM12	2024-09-20 13:51:38.904	-0,021	-0,014	0,997	0,854	0,244	0,000	-1,077	1,088	168,975	-29,783	-259,961	-170,820	19,54	96530	408,64														
 09:06:34.190	COM12	2024-09-20 13:51:39.004	-0,018	-0,008	1,000	0,122	0,000	-0,122	-1,055	1,088	168,970	-81,601	-240,565	-306,449	19,49	96530	408,64														
 09:06:34.296	COM12	2024-09-20 13:51:39.104	-0,018	-0,018	0,998	0,427	0,244	0,183	-0,994	1,082	168,975	-144,339	-176,280	71,123	19,51	96531	408,55														
 09:06:34.388	COM12	2024-09-20 13:51:39.204	-0,014	-0,007	0,997	0,244	0,000	-0,122	-0,945	1,104	168,981	-193,115	-64,857	349,479	19,49	96533	408,38														
 09:06:34.500	COM12	2024-09-20 13:51:39.304	-0,017	0,014	1,000	0,305	-0,061	-0,244	-0,895	1,071	168,964	-202,462	47,177	393,510	19,47	96533	408,38														
 09:06:34.593	COM12	2024-09-20 13:51:39.404	-0,011	0,017	1,001	0,122	0,183	-3,601	-0,813	1,027	168,761	-180,479	130,546	388,752	19,49	96533	408,38														
 09:06:34.701	COM12	2024-09-20 13:51:39.504	-0,022	0,002	1,000	0,427	0,000	-3,662	-0,714	0,989	168,365	-148,447	181,467	388,362	19,51	96533	408,38														
 09:06:34.794	COM12	2024-09-20 13:51:39.604	-0,016	-0,019	0,999	0,000	-0,732	-4,150	-0,654	0,950	168,036	-113,607	211,887	403,442	19,51	96532	408,47														
 09:06:34.903	COM12	2024-09-20 13:51:39.704	-0,015	-0,003	1,000	0,671	0,000	0,244	-0,599	0,934	167,866	-76,453	221,039	-220,675	19,49	96531	408,55														
 09:06:34.997	COM12	2024-09-20 13:51:39.804	-0,014	0,008	1,000	-0,183	-0,061	-0,183	-0,566	0,906	167,860	-38,987	215,891	-339,261	19,51	96529	408,72														
 09:06:35.091	COM12	2024-09-20 13:51:39.904	-0,014	0,009	1,000	-0,122	-0,122	-0,305	-0,516	0,890	167,860	-7,748	198,796	-295,165	19,54	96530	408,64														
 09:06:35.197	COM12	2024-09-20 13:51:40.004	-0,015	0,016	1,000	0,244	0,000	0,061	-0,450	0,879	167,860	15,405	181,038	-234,520	19,51	96530	408,64														
 09:06:35.289	COM12	2024-09-20 13:51:40.104	-0,013	0,001	0,999	0,061	-0,061	0,000	-0,385	0,851	167,855	31,564	166,179	-185,211	19,51	96530	408,64														
 09:06:35.396	COM12	2024-09-20 13:51:40.204	-0,013	0,005	1,000	0,061	0,000	0,183	-0,346	0,824	167,844	42,952	152,256	-146,744	19,51	96530	408,64														
 09:06:35.488	COM12	2024-09-20 13:51:40.304	-0,015	0,003	0,999	0,122	0,061	-0,061	-0,302	0,807	167,838	52,052	140,387	-116,675	19,55	96530	408,64														
 09:06:35.595	COM12	2024-09-20 13:51:40.404	-0,015	0,000	1,000	0,061	-0,122	-0,061	-0,269	0,802	167,838	59,618	131,027	-93,015	19,52	96530	408,64														
 09:06:35.689	COM12	2024-09-20 13:51:40.504	-0,015	0,005	0,999	0,061	0,122	0,183	-0,247	0,791	167,838	66,209	122,967	-72,735	19,51	96530	408,64														
 09:06:35.798	COM12	2024-09-20 13:51:40.604	-0,016	0,000	0,999	0,122	0,061	0,000	-0,236	0,786	167,833	72,397	115,427	-55,055	19,54	96530	408,64														
 09:06:35.891	COM12	2024-09-20 13:51:40.704	-0,017	-0,007	0,999	0,000	0,122	0,000	-0,231	0,780	167,838	78,026	107,744	-38,389	19,51	96530	408,64														
 09:06:36.001	COM12	2024-09-20 13:51:40.804	-0,015	-0,013	0,999	0,061	-0,061	0,000	-0,231	0,764	167,838	82,628	100,581	-24,830	19,51	96530	408,64														
 09:06:36.095	COM12	2024-09-20 13:51:40.904	-0,014	-0,005	1,000	0,061	0,000	0,000	-0,236	0,764	167,838	87,178	92,599	-10,322	19,52	96530	408,64														
 09:06:36.186	COM12	2024-09-20 13:51:41.004	-0,016	0,004	0,998	0,000	-0,061	0,000	-0,247	0,769	167,838	91,364	84,877	2,548	19,52	96530	408,64														
 09:06:36.295	COM12	2024-09-20 13:51:41.104	-0,018	-0,005	0,999	0,061	-0,122	0,000	-0,242	0,764	167,838	94,367	78,806	12,506	19,49	96530	408,64														
 09:06:36.388	COM12	2024-09-20 13:51:41.204	-0,014	-0,013	1,000	-0,122	-0,061	0,000	-0,264	0,758	167,838	97,591	71,929	24,011	19,52	96530	408,64														
 09:06:36.497	COM12	2024-09-20 13:51:41.304	-0,018	-0,004	0,999	0,122	0,122	0,000	-0,291	0,758	167,838	102,453	61,282	40,443	19,49	96530	408,64														
 09:06:36.590	COM12	2024-09-20 13:51:41.404	-0,016	0,026	1,000	0,488	-0,732	-11,780	-0,264	0,736	167,646	106,808	50,427	56,264	19,54	96530	408,64														
 09:06:36.699	COM12	2024-09-20 13:51:41.504	-0,015	-0,005	0,999	-0,305	0,488	0,000	-0,242	0,736	167,454	107,302	48,074	59,410	19,54	96530	408,64														
 09:06:36.793	COM12	2024-09-20 13:51:41.604	-0,016	-0,005	0,999	0,122	-0,183	-0,061	-0,242	0,731	167,448	107,354	47,866	59,735	19,54	96530	408,64														
 09:06:36.887	COM12	2024-09-20 13:51:41.704	-0,014	-0,004	0,999	-0,061	-0,061	0,000	-0,242	0,725	167,448	107,367	47,827	59,813	19,51	96530	408,64														
 09:06:36.994	COM12	2024-09-20 13:51:41.804	-0,016	-0,005	0,999	0,000	-0,061	0,000	-0,253	0,720	167,448	107,367	47,827	59,813	19,52	96530	408,64														
 09:06:37.086	COM12	2024-09-20 13:51:41.904	-0,015	-0,003	0,999	0,000	-0,061	0,000	-0,258	0,720	167,448	107,380	47,827	59,826	19,51	96530	408,64														
 09:06:37.194	COM12	2024-09-20 13:51:42.004	-0,015	-0,005	0,999	0,000	0,000	0,000	-0,264	0,714	167,448	107,367	47,814	59,852	19,54	96530	408,64														
 09:06:37.289	COM12	2024-09-20 13:51:42.104	-0,015	-0,004	1,000	0,000	0,000	0,000	-0,275	0,714	167,448	107,367	47,814	59,852	19,54	96530	408,64														
 09:06:37.396	COM12	2024-09-20 13:51:42.204	-0,015	-0,004	0,999	0,061	0,000	0,000	-0,280	0,714	167,448	107,367	47,801	59,865	19,54	96530	408,64														
 09:06:37.490	COM12	2024-09-20 13:51:42.304	-0,015	-0,004	0,999	0,000	0,000	0,000	-0,286	0,714	167,448	107,380	47,788	59,878	19,52	96530	408,64														
 09:06:37.598	COM12	2024-09-20 13:51:42.404	-0,015	-0,004	1,000	0,000	0,000	0,000	-0,291	0,714	167,448	107,393	47,788	59,917	19,47	96530	408,64														
 09:06:37.690	COM12	2024-09-20 13:51:42.504	-0,015	-0,005	0,999	0,000	0,000	0,000	-0,302	0,714	167,448	107,393	47,775	59,917	19,51	96529	408,72														
 09:06:37.800	COM12	2024-09-20 13:51:42.604	-0,015	-0,004	0,999	0,000	0,000	0,000	-0,308	0,714	167,448	107,406	47,762	59,904	19,51	96530	408,64														
 09:06:37.895	COM12	2024-09-20 13:51:42.704	-0,015	-0,004	0,999	0,000	-0,061	0,000	-0,319	0,714	167,448	107,393	47,775	59,891	19,51	96530	408,64														
 09:06:37.987	COM12	2024-09-20 13:51:42.804	-0,015	-0,005	1,000	0,000	0,000	0,000	-0,324	0,709	167,448	107,380	47,801	59,878	19,54	96530	408,64														
 09:06:38.097	COM12	2024-09-20 13:51:42.904	-0,015	-0,005	0,999	0,000	0,000	0,000	-0,330	0,709	167,448	107,380	47,801	59,878	19,54	96530	408,64														
 09:06:38.191	COM12	2024-09-20 13:51:43.004	-0,015	-0,005	0,999	0,000	0,000	0,000	-0,335	0,703	167,448	107,367	47,814	59,865	19,52	96529	408,72														
 09:06:38.300	COM12	2024-09-20 13:51:43.104	-0,015	-0,004	0,999	0,000	0,000	0,000	-0,341	0,703	167,448	107,367	47,814	59,878	19,51	96530	408,64														
 09:06:38.393	COM12	2024-09-20 13:51:43.204	-0,015	-0,005	0,999	0,061	0,122	0,000	-0,341	0,709	167,448	107,354	47,853	59,852	19,51	96530	408,64														
 09:06:38.501	COM12	2024-09-20 13:51:43.304	-0,014	-0,005	0,999	0,061	0,061	0,000	-0,346	0,709	167,448	107,367	47,840	59,865	19,51	96530	408,64														
 09:06:38.595	COM12	2024-09-20 13:51:43.404	-0,014	-0,004	0,999	0,000	0,061	0,000	-0,346	0,709	167,448	107,354	47,814	59,878	19,57	96529	408,72														
 09:06:38.688	COM12	2024-09-20 13:51:43.504	-0,015	-0,005	0,999	0,061	0,122	0,000	-0,352	0,709	167,448	107,367	47,827	59,852	19,54	96530	408,64														
 09:06:38.798	COM12	2024-09-20 13:51:43.604	-0,014	-0,005	0,999	0,000	0,061	0,000	-0,352	0,714	167,448	107,367	47,814	59,878	19,52	96530	408,64														
 09:06:38.891	COM12	2024-09-20 13:51:43.704	-0,014	-0,005	0,999	0,000	0,122	0,000	-0,357	0,720	167,448	107,380	47,827	59,878	19,55	96530	408,64														
 09:06:38.999	COM12	2024-09-20 13:51:43.804	-0,016	-0,004	1,000	0,000	0,000	0,000	-0,363	0,720	167,448	107,367	47,814	59,865	19,55	96529	408,72														
 09:06:39.091	COM12	2024-09-20 13:51:43.904	-0,015	-0,005	0,999	0,061	0,000	0,000	-0,363	0,720	167,448	107,367	47,840	59,865	19,51	96530	408,64														
 09:06:39.199	COM12	2024-09-20 13:51:44.004	-0,015	-0,004	0,999	0,000	0,061	0,000	-0,368	0,720	167,448	107,367	47,840	59,865	19,55	96529	408,72														
 09:06:39.292	COM12	2024-09-20 13:51:44.104	-0,015	-0,004	0,999	0,000	0,000	0,000	-0,368	0,725	167,448	107,367	47,853	59,865	19,51	96530	408,64														
 09:06:39.386	COM12	2024-09-20 13:51:44.204	-0,015	-0,004	0,999	0,000	0,000	0,000	-0,374	0,725	167,448	107,367	47,853	59,865	19,54	96529	408,72														
 09:06:39.493	COM12	2024-09-20 13:51:44.304	-0,014	-0,004	0,999	0,000	0,000	0,000	-0,379	0,725	167,448	107,354	47,866	59,813	19,54	96530	408,64														
 09:06:39.586	COM12	2024-09-20 13:51:44.404	-0,015	-0,005	0,999	0,000	0,000	0,000	-0,379	0,725	167,448	107,341	47,918	59,774	19,55	96530	408,64														
 09:06:39.695	COM12	2024-09-20 13:51:44.504	-0,015	-0,005	1,000	0,000	0,000	0,000	-0,385	0,725	167,448	107,328	47,957	59,735	19,54	96530	408,64														
 09:06:39.787	COM12	2024-09-20 13:51:44.604	-0,014	-0,004	0,999	0,000	0,000	0,000	-0,385	0,725	167,448	107,315	47,983	59,696	19,51	96530	408,64														
 09:06:39.895	COM12	2024-09-20 13:51:44.704	-0,010	-0,002	0,999	0,000	0,366	0,000	-0,385	0,725	167,448	107,263	48,126	59,527	19,55	96529	408,72														
 09:06:39.989	COM12	2024-09-20 13:51:44.804	-0,004	0,025	1,000	-0,427	-0,122	-0,305	-0,379	0,736	167,443	106,756	49,413	57,616	19,55	96530	408,64														
 09:06:40.097	COM12	2024-09-20 13:51:44.904	-0,009	0,058	0,998	-0,305	0,244	-3,418	-0,346	0,720	167,206	103,025	58,799	44,226	19,57	96530	408,64														
 09:06:40.190	COM12	2024-09-20 13:51:45.004	-0,014	0,024	1,000	0,000	0,549	-1,282	-0,236	0,725	166,943	91,312	84,214	5,070	19,52	96530	408,64														
 09:06:40.297	COM12	2024-09-20 13:51:45.104	-0,009	0,013	1,000	-0,549	0,244	-0,549	-0,148	0,731	166,849	69,498	117,013	-62,231	19,54	96530	408,64														
 09:06:40.389	COM12	2024-09-20 13:51:45.204	-0,014	0,019	1,000	-0,183	-0,183	-0,122	-0,110	0,703	166,833	42,757	149,045	-148,564	19,51	96529	408,72														
 09:06:40.496	COM12	2024-09-20 13:51:45.304	-0,021	0,007	0,995	0,061	-0,061	0,244	-0,071	0,703	166,822	4,784	180,518	-265,486	19,54	96528	408,81														
 09:06:40.588	COM12	2024-09-20 13:51:45.404	-0,021	-0,038	0,999	-0,427	0,122	-0,488	-0,071	0,714	166,794	-50,297	201,175	-376,701	19,57	96528	408,81														
 09:06:40.696	COM12	2024-09-20 13:51:45.504	-0,016	-0,037	1,000	-0,244	-0,061	0,244	-0,132	0,736	166,772	-106,782	193,310	283,686	19,54	96527	408,89														
 09:06:40.789	COM12	2024-09-20 13:51:45.604	-0,001	-0,006	1,000	-0,122	0,061	0,000	-0,214	0,758	166,778	-154,622	154,778	373,308	19,52	96529	408,72														
 09:06:40.898	COM12	2024-09-20 13:51:45.704	-0,017	0,067	1,001	-0,183	0,000	0,488	-0,253	0,764	166,778	-190,437	88,400	394,186	19,52	96526	408,98														
 09:06:40.991	COM12	2024-09-20 13:51:45.804	-0,018	0,002	0,998	-0,366	0,000	0,122	-0,187	0,791	166,767	-200,499	-21,086	390,936	19,55	96528	408,81														
 09:06:41.099	COM12	2024-09-20 13:51:45.904	-0,022	-0,030	0,999	-0,488	0,122	2,197	-0,159	0,813	166,833	-158,197	-151,593	122,941	19,54	96531	408,55														
 09:06:41.192	COM12	2024-09-20 13:51:46.004	-0,020	-0,030	0,998	-0,305	0,183	3,845	-0,209	0,835	167,327	-88,322	-229,996	-258,752	19,54	96529	408,72														
 09:06:41.299	COM12	2024-09-20 13:51:46.104	-0,019	-0,024	1,000	0,000	0,366	0,732	-0,286	0,857	167,542	-30,056	-253,058	-170,664	19,52	96528	408,81														
 09:06:41.392	COM12	2024-09-20 13:51:46.204	-0,015	-0,015	1,000	0,061	0,183	0,183	-0,401	0,895	167,635	21,268	-257,140	-15,236	19,57	96528	408,81														
 09:06:41.485	COM12	2024-09-20 13:51:46.304	-0,022	-0,024	1,000	-0,122	0,305	0,122	-0,505	0,906	167,640	67,041	-251,784	125,788	19,57	96530	408,64														
 09:06:41.592	COM12	2024-09-20 13:51:46.404	-0,024	-0,040	0,999	0,000	0,061	0,000	-0,588	0,923	167,640	99,723	-235,911	210,418	19,57	96529	408,72														
 09:06:41.687	COM12	2024-09-20 13:51:46.504	-0,020	-0,035	0,998	0,000	0,244	0,183	-0,692	0,950	167,635	122,031	-218,634	260,702	19,57	96528	408,81														
 09:06:41.795	COM12	2024-09-20 13:51:46.604	-0,025	-0,034	0,999	0,122	0,061	0,122	-0,769	0,978	167,651	139,776	-204,997	297,947	19,54	96528	408,81														
 09:06:41.889	COM12	2024-09-20 13:51:46.704	-0,023	-0,041	0,998	0,122	0,183	0,427	-0,857	0,994	167,679	157,963	-194,064	330,317	19,54	96528	408,81														
 09:06:41.998	COM12	2024-09-20 13:51:46.804	-0,021	-0,031	0,999	0,000	0,000	0,732	-0,950	1,016	167,767	171,834	-186,056	351,273	19,51	96528	408,81														
 09:06:42.093	COM12	2024-09-20 13:51:46.904	-0,021	-0,022	0,999	0,000	0,122	0,000	-1,016	1,027	167,800	180,700	-180,505	363,545	19,54	96528	408,81														
 09:06:42.187	COM12	2024-09-20 13:51:47.004	-0,021	-0,018	0,999	0,244	0,183	0,061	-1,044	1,038	167,822	187,473	-175,812	372,346	19,55	96529	408,72														
 09:06:42.298	COM12	2024-09-20 13:51:47.104	-0,018	-0,021	1,000	0,183	0,061	0,183	-1,060	1,044	167,822	192,972	-171,197	378,794	19,57	96529	408,72														
 09:06:42.391	COM12	2024-09-20 13:51:47.204	-0,019	-0,003	1,000	0,000	0,000	0,000	-1,066	1,044	167,827	197,080	-167,167	383,500	19,54	96529	408,72														
 09:06:42.499	COM12	2024-09-20 13:51:47.304	-0,019	-0,018	0,999	0,305	0,183	0,671	-1,055	1,044	167,860	201,292	-162,682	387,998	19,55	96529	408,72														
 09:06:42.591	COM12	2024-09-20 13:51:47.404	-0,018	-0,019	1,000	0,183	0,122	0,671	-1,049	1,044	167,888	205,114	-157,729	392,795	19,54	96529	408,72														
 09:06:42.699	COM12	2024-09-20 13:51:47.504	-0,020	-0,012	0,999	0,183	0,061	0,793	-1,044	1,049	167,937	208,052	-153,283	396,422	19,57	96529	408,72														
 09:06:42.791	COM12	2024-09-20 13:51:47.604	-0,020	-0,017	0,999	0,122	0,244	0,305	-1,033	1,049	167,997	210,808	-148,928	399,646	19,57	96529	408,72														
 09:06:42.885	COM12	2024-09-20 13:51:47.704	-0,018	-0,020	1,000	0,061	0,244	1,465	-1,027	1,055	168,019	213,616	-144,248	402,584	19,57	96529	408,72														
 09:06:42.994	COM12	2024-09-20 13:51:47.804	-0,019	-0,015	0,999	0,244	0,000	0,000	-1,033	1,077	168,173	213,889	-142,181	403,611	19,57	96529	408,72														
 09:06:43.088	COM12	2024-09-20 13:51:47.904	-0,020	-0,014	1,000	0,061	0,000	0,000	-1,022	1,077	168,173	213,876	-141,791	403,806	19,55	96529	408,72														
 09:06:43.196	COM12	2024-09-20 13:51:48.004	-0,019	-0,014	0,999	0,061	0,122	0,000	-1,022	1,077	168,173	213,863	-141,765	403,871	19,52	96529	408,72														
 09:06:43.289	COM12	2024-09-20 13:51:48.104	-0,019	-0,015	0,999	0,061	0,061	0,000	-1,011	1,071	168,173	213,863	-141,778	403,871	19,57	96530	408,64														
 09:06:43.399	COM12	2024-09-20 13:51:48.204	-0,019	-0,014	0,999	0,061	0,000	0,000	-1,000	1,071	168,173	213,863	-141,778	403,897	19,58	96530	408,64														
 09:06:43.491	COM12	2024-09-20 13:51:48.304	-0,019	-0,014	0,999	0,122	0,122	0,000	-0,989	1,071	168,173	213,850	-141,791	403,897	19,54	96530	408,64														
 09:06:43.597	COM12	2024-09-20 13:51:48.404	-0,020	-0,014	0,999	0,122	0,061	0,000	-0,978	1,071	168,173	213,837	-141,791	403,910	19,57	96530	408,64														
 09:06:43.691	COM12	2024-09-20 13:51:48.504	-0,020	-0,014	0,999	0,061	0,061	0,000	-0,967	1,071	168,173	213,824	-141,791	403,923	19,55	96530	408,64														
 09:06:43.784	COM12	2024-09-20 13:51:48.604	-0,019	-0,014	0,999	0,122	0,122	0,000	-0,961	1,071	168,173	213,811	-141,778	403,923	19,54	96530	408,64														
 09:06:43.892	COM12	2024-09-20 13:51:48.704	-0,020	-0,014	0,999	0,122	0,000	0,000	-0,950	1,066	168,173	213,824	-141,791	403,936	19,57	96530	408,64														
 09:06:43.985	COM12	2024-09-20 13:51:48.804	-0,019	-0,014	0,999	0,061	0,061	0,000	-0,939	1,066	168,173	213,811	-141,778	403,936	19,57	96530	408,64														
 09:06:44.092	COM12	2024-09-20 13:51:48.904	-0,019	-0,013	0,999	0,061	0,000	0,000	-0,934	1,071	168,173	213,811	-141,778	403,949	19,57	96530	408,64														
 09:06:44.199	COM12	2024-09-20 13:51:49.004	-0,019	-0,014	0,999	0,061	0,000	0,000	-0,928	1,066	168,173	213,824	-141,778	403,962	19,57	96530	408,64														
 09:06:44.292	COM12	2024-09-20 13:51:49.104	-0,019	-0,014	0,998	0,061	0,061	0,000	-0,923	1,066	168,173	213,811	-141,778	403,962	19,58	96530	408,64														
 09:06:44.383	COM12	2024-09-20 13:51:49.204	-0,020	-0,014	0,998	0,122	0,000	0,000	-0,917	1,060	168,173	213,811	-141,778	403,962	19,57	96530	408,64														
 09:06:44.493	COM12	2024-09-20 13:51:49.304	-0,019	-0,014	0,999	0,122	0,061	0,000	-0,906	1,066	168,173	213,798	-141,765	403,962	19,54	96529	408,72														
 09:06:44.587	COM12	2024-09-20 13:51:49.404	-0,020	-0,014	0,999	0,000	0,000	0,000	-0,906	1,060	168,173	213,798	-141,765	403,975	19,55	96530	408,64														
 09:06:44.695	COM12	2024-09-20 13:51:49.504	-0,020	-0,014	0,999	0,000	0,000	0,000	-0,912	1,055	168,173	213,824	-141,791	403,975	19,60	96530	408,64														
 09:06:44.787	COM12	2024-09-20 13:51:49.604	-0,020	-0,014	0,999	0,000	0,000	0,000	-0,912	1,049	168,173	213,811	-141,791	403,975	19,57	96530	408,64														
 09:06:44.895	COM12	2024-09-20 13:51:49.704	-0,020	-0,014	0,999	0,000	0,000	0,000	-0,917	1,044	168,173	213,811	-141,791	403,962	19,55	96530	408,64														
 09:06:44.989	COM12	2024-09-20 13:51:49.804	-0,019	-0,014	0,999	0,000	0,000	0,000	-0,917	1,038	168,173	213,811	-141,778	403,975	19,54	96529	408,72														
 09:06:45.096	COM12	2024-09-20 13:51:49.904	-0,020	-0,014	0,999	0,000	0,000	0,000	-0,917	1,038	168,173	213,837	-141,778	403,962	19,58	96529	408,72														
 09:06:45.189	COM12	2024-09-20 13:51:50.004	-0,019	-0,014	0,999	0,000	0,000	0,000	-0,923	1,033	168,173	213,824	-141,778	403,962	19,58	96530	408,64														
 09:06:45.298	COM12	2024-09-20 13:51:50.104	-0,020	-0,014	0,999	0,000	0,000	0,000	-0,923	1,027	168,173	213,824	-141,778	403,975	19,55	96529	408,72														
 09:06:45.391	COM12	2024-09-20 13:51:50.204	-0,020	-0,014	0,999	0,000	0,000	0,000	-0,923	1,022	168,173	213,824	-141,778	403,988	19,55	96529	408,72														
 09:06:45.499	COM12	2024-09-20 13:51:50.304	-0,019	-0,014	0,999	0,000	0,000	0,000	-0,923	1,022	168,173	213,824	-141,778	404,001	19,55	96529	408,72														
 09:06:45.591	COM12	2024-09-20 13:51:50.404	-0,020	-0,014	0,999	0,000	0,000	0,000	-0,928	1,016	168,173	213,811	-141,791	403,988	19,58	96529	408,72														
 09:06:45.683	COM12	2024-09-20 13:51:50.504	-0,020	-0,014	0,999	0,000	0,000	0,000	-0,928	1,016	168,173	213,837	-141,791	404,014	19,54	96529	408,72														
 09:06:45.791	COM12	2024-09-20 13:51:50.604	-0,019	-0,014	0,999	0,000	0,000	0,000	-0,928	1,011	168,173	213,837	-141,778	404,014	19,62	96529	408,72														
 09:06:45.884	COM12	2024-09-20 13:51:50.704	-0,019	-0,014	0,999	0,000	0,000	0,000	-0,928	1,011	168,173	213,824	-141,804	404,001	19,57	96529	408,72														
 09:06:45.991	COM12	2024-09-20 13:51:50.804	-0,019	-0,014	0,999	0,000	0,000	0,000	-0,934	1,005	168,173	213,824	-141,804	404,001	19,57	96530	408,64														
 09:06:46.098	COM12	2024-09-20 13:51:50.904	-0,020	-0,014	0,999	0,000	0,000	0,000	-0,934	1,005	168,173	213,837	-141,804	404,001	19,57	96529	408,72														
 09:06:46.191	COM12	2024-09-20 13:51:51.004	-0,019	-0,014	0,999	0,000	0,000	0,000	-0,934	1,000	168,173	213,837	-141,804	404,001	19,55	96529	408,72														
 09:06:46.286	COM12	2024-09-20 13:51:51.104	-0,020	-0,014	0,999	0,000	0,000	0,000	-0,934	1,000	168,173	213,824	-141,804	403,988	19,58	96529	408,72														
 09:06:46.394	COM12	2024-09-20 13:51:51.204	-0,019	-0,014	0,999	0,000	0,000	0,000	-0,934	0,994	168,173	213,837	-141,804	403,988	19,57	96529	408,72														
 09:06:46.487	COM12	2024-09-20 13:51:51.304	-0,020	-0,014	0,998	0,000	0,000	0,000	-0,939	0,994	168,173	213,837	-141,791	404,001	19,55	96529	408,72														
 09:06:46.595	COM12	2024-09-20 13:51:51.404	-0,019	-0,014	0,999	0,000	0,000	0,000	-0,939	0,989	168,173	213,824	-141,817	404,001	19,58	96530	408,64														
 09:06:46.687	COM12	2024-09-20 13:51:51.504	-0,019	-0,014	0,999	0,000	0,000	0,000	-0,939	0,989	168,173	213,811	-141,895	403,988	19,57	96529	408,72														
 09:06:46.795	COM12	2024-09-20 13:51:51.604	-0,020	-0,014	0,999	0,000	0,000	0,000	-0,939	0,989	168,173	213,772	-141,973	403,988	19,60	96529	408,72														
 09:06:46.887	COM12	2024-09-20 13:51:51.704	-0,019	-0,014	0,999	0,000	0,000	0,000	-0,939	0,983	168,173	213,759	-141,986	403,988	19,60	96529	408,72														
 09:06:46.996	COM12	2024-09-20 13:51:51.804	-0,019	-0,013	0,999	0,000	0,000	0,000	-0,939	0,983	168,173	213,746	-142,012	403,988	19,55	96529	408,72														
 09:06:47.088	COM12	2024-09-20 13:51:51.904	-0,019	-0,013	0,999	0,000	0,000	0,000	-0,939	0,978	168,173	213,720	-142,025	403,988	19,60	96529	408,72														
 09:06:47.197	COM12	2024-09-20 13:51:52.004	-0,020	-0,014	0,999	0,000	0,000	0,000	-0,939	0,978	168,173	213,720	-142,025	403,988	19,54	96529	408,72														
 09:06:47.291	COM12	2024-09-20 13:51:52.104	-0,020	-0,015	0,999	0,000	0,000	0,000	-0,939	0,978	168,173	213,694	-142,077	403,988	19,57	96529	408,72														
 09:06:47.386	COM12	2024-09-20 13:51:52.204	-0,023	-0,014	0,999	0,000	0,000	0,366	-0,945	0,978	168,195	213,122	-142,922	403,767	19,60	96529	408,72														
 09:06:47.492	COM12	2024-09-20 13:51:52.304	-0,025	-0,033	0,999	0,061	0,061	0,916	-0,961	0,978	168,283	210,938	-145,990	402,805	19,63	96530	408,64														
 09:06:47.585	COM12	2024-09-20 13:51:52.404	-0,024	-0,049	0,999	0,000	0,000	0,366	-1,005	0,983	168,322	205,894	-153,218	398,905	19,58	96530	408,64														
 09:06:47.691	COM12	2024-09-20 13:51:52.504	-0,019	-0,032	1,000	0,061	0,000	0,061	-1,071	1,011	168,338	195,377	-166,933	388,570	19,62	96530	408,64														
 09:06:47.783	COM12	2024-09-20 13:51:52.604	-0,021	-0,017	1,000	0,244	0,061	0,000	-1,110	1,005	168,333	180,284	-181,740	371,332	19,62	96531	408,55														
 09:06:47.891	COM12	2024-09-20 13:51:52.704	-0,024	-0,026	0,999	0,183	0,061	0,000	-1,110	1,011	168,338	162,552	-194,168	348,751	19,55	96531	408,55														
 09:06:47.985	COM12	2024-09-20 13:51:52.804	-0,021	-0,031	0,998	0,488	0,000	0,793	-1,121	1,038	168,354	144,118	-206,206	320,177	19,58	96531	408,55														
 09:06:48.095	COM12	2024-09-20 13:51:52.904	-0,028	-0,019	0,997	0,305	-0,244	1,709	-1,132	1,049	168,497	126,789	-219,141	288,743	19,57	96531	408,55														
 09:06:48.188	COM12	2024-09-20 13:51:53.004	-0,019	-0,045	0,997	0,061	0,000	1,526	-1,121	1,055	168,602	109,577	-234,117	254,215	19,57	96531	408,55														
 09:06:48.282	COM12	2024-09-20 13:51:53.104	-0,021	-0,013	0,999	0,061	0,000	0,427	-1,121	1,049	168,717	88,530	-249,067	206,752	19,58	96531	408,55														
 09:06:48.390	COM12	2024-09-20 13:51:53.204	-0,028	-0,017	0,999	0,244	-0,061	1,038	-1,093	1,060	168,821	61,061	-261,157	131,430	19,60	96530	408,64														
 09:06:48.485	COM12	2024-09-20 13:51:53.304	-0,022	-0,043	0,997	0,244	0,000	0,610	-1,077	1,060	168,915	27,144	-264,602	16,991	19,57	96530	408,64														
 09:06:48.596	COM12	2024-09-20 13:51:53.404	-0,023	-0,032	0,998	-0,061	-0,061	-0,183	-1,077	1,060	168,959	-8,125	-264,667	-110,513	19,60	96530	408,64														
 09:06:48.690	COM12	2024-09-20 13:51:53.504	-0,020	-0,028	0,999	0,427	0,122	-0,061	-1,055	1,066	168,959	-44,902	-258,713	-232,310	19,57	96530	408,64														
 09:06:48.782	COM12	2024-09-20 13:51:53.604	-0,017	-0,013	0,998	0,549	0,122	0,061	-1,049	1,066	168,964	-94,666	-231,777	-353,327	19,60	96529	408,72														
 09:06:48.890	COM12	2024-09-20 13:51:53.704	-0,019	0,002	0,999	0,122	-0,122	0,122	-1,033	1,077	168,959	-149,344	-165,503	256,178	19,60	96530	408,64														
 09:06:48.983	COM12	2024-09-20 13:51:53.804	-0,020	0,000	1,000	0,244	0,122	-0,244	-0,983	1,066	168,953	-183,456	-62,257	376,740	19,58	96532	408,47														
 09:06:49.092	COM12	2024-09-20 13:51:53.904	-0,021	-0,011	1,000	0,183	-0,122	-0,366	-0,939	1,044	168,948	-182,325	36,439	400,179	19,57	96532	408,47														
 09:06:49.187	COM12	2024-09-20 13:51:54.004	-0,016	-0,001	0,999	0,244	-0,183	-1,953	-0,879	1,038	168,788	-156,767	116,402	389,116	19,60	96532	408,47														
 09:06:49.296	COM12	2024-09-20 13:51:54.104	-0,014	0,013	0,998	0,000	-0,305	-2,014	-0,818	1,027	168,646	-120,783	170,326	391,963	19,57	96532	408,47														
 09:06:49.388	COM12	2024-09-20 13:51:54.204	-0,016	0,016	1,000	-0,122	-0,244	-1,221	-0,764	0,961	168,481	-82,654	197,613	123,149	19,60	96532	408,47														
 09:06:49.497	COM12	2024-09-20 13:51:54.304	-0,019	0,006	0,999	0,000	-0,061	0,061	-0,665	0,934	168,453	-47,606	203,853	-327,236	19,58	96530	408,64														
 09:06:49.591	COM12	2024-09-20 13:51:54.404	-0,020	-0,013	0,999	0,061	0,000	0,183	-0,604	0,906	168,453	-17,459	198,666	-336,284	19,55	96529	408,72														
 09:06:49.683	COM12	2024-09-20 13:51:54.504	-0,015	-0,011	1,000	-0,122	-0,366	-0,122	-0,588	0,884	168,448	8,112	184,379	-281,268	19,58	96529	408,72														
 09:06:49.790	COM12	2024-09-20 13:51:54.604	-0,013	0,010	0,999	-0,122	0,000	-0,061	-0,577	0,862	168,442	30,966	167,531	-212,186	19,60	96529	408,72														
 09:06:49.885	COM12	2024-09-20 13:51:54.704	-0,012	0,013	0,999	0,061	-0,061	-0,122	-0,538	0,818	168,426	47,203	149,565	-153,920	19,62	96529	408,72														
 09:06:49.994	COM12	2024-09-20 13:51:54.804	-0,018	0,013	0,999	-0,061	-0,122	-0,061	-0,472	0,807	168,431	58,825	134,940	-112,905	19,63	96529	408,72														
 09:06:50.087	COM12	2024-09-20 13:51:54.904	-0,020	-0,005	0,999	-0,122	-0,244	-0,183	-0,417	0,786	168,431	66,976	124,761	-85,657	19,63	96529	408,72														
 09:06:50.194	COM12	2024-09-20 13:51:55.004	-0,019	-0,020	0,999	-0,122	-0,183	-0,061	-0,401	0,769	168,426	74,451	115,947	-61,451	19,60	96529	408,72														
 09:06:50.288	COM12	2024-09-20 13:51:55.104	-0,017	-0,006	1,000	-0,061	-0,244	-0,061	-0,423	0,764	168,420	82,667	104,624	-34,047	19,62	96529	408,72														
 09:06:50.382	COM12	2024-09-20 13:51:55.204	-0,012	0,000	1,000	0,000	-0,122	0,000	-0,434	0,758	168,420	91,819	89,778	-4,563	19,58	96529	408,72														
 09:06:50.492	COM12	2024-09-20 13:51:55.304	-0,012	0,023	1,000	0,000	0,000	0,122	-0,434	0,753	168,415	99,996	74,074	24,739	19,63	96529	408,72														
 09:06:50.585	COM12	2024-09-20 13:51:55.404	-0,013	0,020	0,998	0,061	0,061	0,122	-0,412	0,742	168,415	106,912	59,449	49,556	19,62	96529	408,72														
 09:06:50.695	COM12	2024-09-20 13:51:55.504	-0,017	-0,001	1,000	-0,244	0,244	0,000	-0,313	0,703	168,151	109,473	53,053	59,618	19,57	96529	408,72														
 09:06:50.789	COM12	2024-09-20 13:51:55.604	-0,015	-0,006	0,999	-0,183	-0,122	-0,061	-0,313	0,709	168,151	109,707	52,312	60,853	19,58	96529	408,72														
 09:06:50.881	COM12	2024-09-20 13:51:55.704	-0,016	-0,004	1,000	0,000	0,000	0,000	-0,313	0,698	168,146	109,733	52,234	61,022	19,58	96529	408,72														
 09:06:50.991	COM12	2024-09-20 13:51:55.804	-0,017	-0,004	1,000	-0,061	-0,122	0,000	-0,319	0,703	168,146	109,759	52,208	61,061	19,60	96529	408,72														
 09:06:51.084	COM12	2024-09-20 13:51:55.904	-0,016	-0,004	0,998	-0,061	0,000	0,000	-0,330	0,698	168,146	109,759	52,208	61,074	19,66	96529	408,72														
 09:06:51.193	COM12	2024-09-20 13:51:56.004	-0,017	-0,004	1,000	-0,061	-0,183	0,000	-0,341	0,698	168,146	109,759	52,208	61,061	19,62	96529	408,72														
 09:06:51.282	COM12	2024-09-20 13:51:56.104	-0,017	-0,003	1,000	0,000	0,000	0,000	-0,352	0,692	168,146	109,759	52,208	61,087	19,60	96529	408,72														
 09:06:51.382	COM12	2024-09-20 13:51:56.204	-0,016	-0,004	0,999	0,000	-0,061	0,000	-0,357	0,692	168,146	109,785	52,208	61,087	19,60	96529	408,72														
 09:06:51.488	COM12	2024-09-20 13:51:56.304	-0,015	-0,004	1,000	-0,061	-0,061	0,000	-0,363	0,687	168,146	109,772	52,195	61,113	19,62	96529	408,72														
 09:06:51.582	COM12	2024-09-20 13:51:56.404	-0,017	-0,004	0,999	0,000	-0,061	0,000	-0,374	0,692	168,146	109,785	52,195	61,113	19,60	96529	408,72														
 09:06:51.691	COM12	2024-09-20 13:51:56.504	-0,016	-0,004	0,999	-0,061	0,000	0,000	-0,379	0,692	168,146	109,798	52,195	61,113	19,60	96529	408,72														
 09:06:51.783	COM12	2024-09-20 13:51:56.604	-0,016	-0,004	0,999	-0,061	0,000	0,000	-0,390	0,692	168,146	109,772	52,221	61,087	19,60	96529	408,72														
 09:06:51.891	COM12	2024-09-20 13:51:56.704	-0,017	-0,004	0,999	-0,122	-0,122	0,000	-0,396	0,692	168,146	109,772	52,234	61,048	19,63	96529	408,72														
 09:06:51.984	COM12	2024-09-20 13:51:56.804	-0,016	-0,004	0,999	-0,061	-0,122	0,000	-0,401	0,692	168,146	109,785	52,247	61,035	19,60	96529	408,72														
 09:06:52.093	COM12	2024-09-20 13:51:56.904	-0,016	-0,004	0,999	-0,122	-0,061	0,000	-0,406	0,692	168,146	109,772	52,234	61,035	19,60	96529	408,72														
 09:06:52.185	COM12	2024-09-20 13:51:57.004	-0,016	-0,004	0,999	-0,061	0,000	0,000	-0,412	0,698	168,146	109,772	52,234	61,048	19,62	96529	408,72														
 09:06:52.294	COM12	2024-09-20 13:51:57.104	-0,016	-0,004	0,999	0,000	0,000	0,000	-0,412	0,698	168,146	109,785	52,234	61,074	19,62	96529	408,72														
 09:06:52.385	COM12	2024-09-20 13:51:57.204	-0,016	-0,004	0,999	0,000	0,000	0,000	-0,412	0,698	168,146	109,772	52,234	61,061	19,60	96529	408,72														
 09:06:52.492	COM12	2024-09-20 13:51:57.304	-0,016	-0,004	0,999	0,000	0,000	0,000	-0,412	0,703	168,146	109,772	52,247	61,061	19,63	96529	408,72														
 09:06:52.584	COM12	2024-09-20 13:51:57.404	-0,016	-0,005	0,998	0,000	0,000	0,000	-0,412	0,709	168,146	109,772	52,234	61,048	19,63	96529	408,72														
 09:06:52.693	COM12	2024-09-20 13:51:57.504	-0,016	-0,004	0,999	0,000	0,000	0,000	-0,412	0,709	168,146	109,772	52,247	61,035	19,60	96529	408,72														
 09:06:52.787	COM12	2024-09-20 13:51:57.604	-0,016	-0,004	0,999	0,000	0,000	0,000	-0,412	0,714	168,146	109,772	52,247	61,035	19,63	96529	408,72														
