Time	Device name	Chip Time()	Acceleration X(g)	Acceleration Y(g)	Acceleration Z(g)	Angular velocity X(°/s)	Angular velocity Y(°/s)	Angular velocity Z(°/s)	Angle X(°)	Angle Y(°)	Angle Z(°)	Magnetic field X(ʯt)	Magnetic field Y(ʯt)	Magnetic field Z(ʯt)	Temperature(℃)	Pressure(Pa)	Height(m)	Longitude()	Latitude()	GPS ground speed(km)	Angle of course(°)	GPS height(m)	Number of satellites()	Position location()	Horizontal position()	Vertical position()	Quaternions 0()	Quaternions 1()	Quaternions 2()	Quaternions 3()
 15:32:07.831	COM12		-0,095	0,013	1,005	0,000	0,000	0,000	0,577	5,350	-59,557	81,367	73,346	64,935	20,04	96600	402,67														
 15:32:07.929	COM12		-0,095	0,013	1,004	0,000	0,000	0,000	0,577	5,345	-59,540	81,367	73,333	64,948	20,06	96600	402,67														
 15:32:08.027	COM12		-0,094	0,013	1,004	0,000	0,000	0,000	0,577	5,339	-59,529	81,380	73,346	64,948	20,03	96600	402,67														
 15:32:08.127	COM12		-0,095	0,013	1,004	0,000	0,000	0,000	0,577	5,339	-59,518	81,367	73,359	64,948	20,06	96600	402,67														
 15:32:08.227	COM12		-0,091	0,013	1,005	0,000	0,000	0,000	0,577	5,334	-59,507	81,367	73,359	64,948	20,03	96600	402,67														
 15:32:08.327	COM12		-0,100	0,012	1,009	-0,122	1,709	0,000	0,571	5,383	-59,496	81,393	73,359	64,961	20,07	96600	402,67														
 15:32:08.427	COM12		-0,091	0,012	1,005	-0,061	2,319	0,000	0,560	5,592	-59,485	81,510	73,359	65,039	20,06	96600	402,67														
 15:32:08.527	COM12		-0,150	0,012	1,017	-0,305	9,949	0,000	0,549	6,026	-59,474	81,718	73,372	65,195	20,04	96601	402,58														
 15:32:08.627	COM12		-0,146	0,012	0,990	-0,427	15,442	-0,183	0,505	7,427	-59,436	82,394	73,411	65,754	20,04	96601	402,58														
 15:32:08.727	COM12		-0,184	0,010	1,004	-0,427	17,029	-0,305	0,472	8,685	-59,436	83,148	73,489	66,365	20,04	96602	402,5														
 15:32:08.827	COM12		-0,254	0,010	1,001	-0,854	30,579	-0,488	0,417	10,849	-59,436	84,253	73,554	67,314	20,03	96602	402,5														
 15:32:08.927	COM12		-0,320	0,007	0,976	-1,038	37,231	-0,610	0,319	14,095	-59,453	85,865	73,671	68,887	20,04	96602	402,5														
 15:32:09.027	COM12		-0,374	0,005	0,952	-0,916	35,034	-0,549	0,214	17,589	-59,480	87,633	73,801	70,798	20,07	96603	402,41														
 15:32:09.127	COM12		-0,412	0,003	0,934	-0,854	33,020	-0,549	0,115	20,814	-59,507	89,193	73,918	72,748	20,01	96602	402,5														
 15:32:09.228	COM12		-0,503	0,003	0,927	-1,160	41,992	-0,732	0,011	24,115	-59,551	90,649	74,035	74,776	20,07	96601	402,58														
 15:32:09.328	COM12		-0,598	0,000	0,867	-1,099	52,979	-1,526	-0,148	28,768	-59,650	92,313	74,139	77,571	20,03	96600	402,67														
 15:32:09.427	COM12		-0,637	-0,005	0,802	-0,854	44,739	-1,282	-0,335	33,723	-59,826	93,938	74,269	80,834	20,06	96600	402,67														
 15:32:09.528	COM12		-0,635	-0,005	0,778	-0,549	21,790	-0,305	-0,472	36,969	-59,936	94,991	74,334	83,408	20,06	96600	402,67														
 15:32:09.628	COM12		-0,716	-0,006	0,780	-0,732	31,738	-0,610	-0,566	39,216	-60,002	95,576	74,360	85,124	20,06	96599	402,76														
 15:32:09.727	COM12		-0,796	-0,009	0,701	-1,160	53,467	-1,221	-0,786	43,489	-60,178	96,278	74,399	87,737	20,06	96599	402,76														
 15:32:09.828	COM12		-0,789	-0,013	0,619	-0,610	34,790	-0,793	-1,049	48,071	-60,414	96,902	74,399	90,935	20,03	96599	402,76														
 15:32:09.928	COM12		-0,811	-0,012	0,621	-0,122	21,667	-0,610	-1,203	50,460	-60,557	97,162	74,386	92,989	20,06	96599	402,76														
 15:32:10.028	COM12		-0,924	-0,014	0,579	-0,244	47,119	-1,343	-1,434	53,624	-60,820	97,305	74,347	94,965	20,06	96599	402,76														
 15:32:10.128	COM12		-0,924	-0,019	0,451	-0,488	31,189	-0,549	-1,829	58,200	-61,271	97,318	74,256	97,877	20,01	96599	402,76														
 15:32:10.228	COM12		-0,767	-0,025	0,425	1,953	-39,551	2,808	-1,813	58,189	-61,243	97,292	74,217	98,735	20,07	96599	402,76														
 15:32:10.327	COM12		-0,875	-0,012	0,617	-0,305	13,184	-0,183	-1,566	55,662	-60,991	97,370	74,256	97,227	20,06	96599	402,76														
 15:32:10.427	COM12		-0,960	-0,018	0,464	-0,671	73,486	-2,014	-2,049	60,287	-61,452	97,266	74,204	99,021	20,04	96601	402,58														
 15:32:10.526	COM12		-0,986	-0,022	0,320	-0,122	58,105	-1,587	-3,027	66,912	-62,474	96,759	73,983	103,012	20,06	96600	402,67														
 15:32:10.626	COM12		-0,960	-0,024	0,258	1,221	28,809	-1,099	-4,005	71,230	-63,578	96,070	73,723	106,093	20,06	96599	402,76														
 15:32:10.726	COM12		-0,962	-0,024	0,257	0,854	10,681	-0,427	-4,510	73,021	-64,177	95,641	73,580	107,614	20,07	96600	402,67														
 15:32:10.826	COM12		-0,997	-0,025	0,217	2,808	44,861	-1,526	-5,636	75,745	-65,506	95,238	73,450	108,966	20,04	96600	402,67														
 15:32:10.926	COM12		-1,021	-0,027	0,119	-0,793	40,283	-0,793	-8,448	79,948	-68,505	94,419	73,138	111,215	20,06	96600	402,67														
 15:32:11.026	COM12		-1,008	-0,029	0,047	-0,244	22,217	-0,305	-12,975	83,145	-72,999	93,548	72,774	113,178	20,04	96599	402,76														
 15:32:11.126	COM12		-0,995	-0,027	0,047	0,427	13,428	-0,183	-17,562	84,771	-77,426	93,015	72,553	114,270	20,07	96599	402,76														
 15:32:11.226	COM12		-1,029	-0,028	0,033	-0,122	18,188	-0,488	-24,307	86,072	-83,947	92,625	72,397	115,024	20,11	96600	402,67														
 15:32:11.326	COM12		-0,990	-0,028	-0,029	-0,366	10,071	0,122	-42,297	87,528	-101,662	92,157	72,163	115,856	20,07	96600	402,67														
 15:32:11.427	COM12		-1,000	-0,026	0,016	0,000	1,099	0,000	-43,077	87,506	-100,096	92,079	72,124	116,012	20,11	96600	402,67														
 15:32:11.526	COM12		-1,002	-0,027	-0,003	0,061	-0,610	0,000	-47,087	87,610	-101,558	92,053	72,111	116,051	20,06	96600	402,67														
 15:32:11.626	COM12		-1,001	-0,028	-0,008	0,000	-0,061	0,000	-50,422	87,665	-102,200	92,040	72,124	116,064	20,07	96600	402,67														
 15:32:11.726	COM12		-1,002	-0,029	-0,007	-0,061	0,061	0,000	-53,372	87,709	-102,491	92,040	72,111	116,077	20,11	96600	402,67														
 15:32:11.826	COM12		-1,004	-0,028	-0,007	0,000	0,061	0,000	-56,151	87,737	-102,700	92,053	72,098	116,064	20,07	96600	402,67														
 15:32:11.926	COM12		-1,010	-0,029	-0,009	0,000	-0,916	0,000	-58,118	87,753	-102,200	92,053	72,111	116,077	20,07	96600	402,67														
 15:32:12.026	COM12		-1,023	-0,028	-0,010	0,061	-4,944	0,000	-54,844	87,632	-96,328	92,092	72,124	115,986	20,09	96600	402,67														
 15:32:12.126	COM12		-1,011	-0,029	0,000	-0,427	-26,550	0,000	-34,239	86,490	-71,867	92,430	72,254	115,388	20,06	96600	402,67														
 15:32:12.225	COM12		-0,990	-0,026	0,071	0,732	-42,175	0,610	-18,040	83,205	-49,603	93,275	72,579	113,815	20,07	96600	402,67														
 15:32:12.325	COM12		-0,985	-0,026	0,161	-0,549	-49,377	0,610	-11,931	78,723	-36,876	94,393	72,982	111,540	20,11	96600	402,67														
 15:32:12.425	COM12		-0,933	-0,025	0,234	-0,977	-61,096	1,465	-8,970	73,416	-27,224	95,472	73,385	108,654	20,11	96600	402,67														
 15:32:12.525	COM12		-0,827	-0,023	0,353	0,366	-87,524	2,563	-6,795	65,814	-18,380	96,603	73,762	104,442	20,09	96601	402,58														
 15:32:12.625	COM12		-0,770	-0,016	0,532	1,343	-85,510	2,014	-5,565	57,228	-10,684	97,331	74,061	98,956	20,07	96601	402,58														
 15:32:12.725	COM12		-0,723	-0,012	0,642	0,183	-58,716	2,014	-4,977	50,718	-3,746	97,331	74,230	94,003	20,11	96601	402,58														
 15:32:12.827	COM12		-0,629	-0,011	0,686	-1,099	-66,406	4,028	-4,521	45,077	2,999	96,824	74,295	89,817	20,07	96601	402,58														
 15:32:12.926	COM12		-0,456	-0,009	0,759	0,183	-90,759	4,333	-4,021	37,189	9,811	95,420	74,269	84,682	20,09	96601	402,58														
 15:32:13.025	COM12		-0,369	-0,001	0,883	1,038	-79,224	3,357	-3,658	29,147	16,139	93,106	74,126	79,183	20,11	96601	402,58														
 15:32:13.125	COM12		-0,356	0,003	0,951	0,183	-39,795	2,747	-3,395	23,681	22,099	90,714	73,931	75,114	20,07	96601	402,58														
 15:32:13.225	COM12		-0,289	0,000	0,927	0,061	-33,752	2,380	-3,197	20,693	27,620	89,089	73,814	72,891	20,07	96600	402,67														
 15:32:13.325	COM12		-0,141	0,008	0,968	1,343	-52,185	2,075	-2,950	16,122	33,030	87,048	73,645	70,551	20,11	96600	402,67														
 15:32:13.425	COM12		-0,208	0,011	1,040	0,305	-15,747	0,183	-2,752	12,777	37,908	84,994	73,463	68,510	20,09	96601	402,58														
 15:32:13.525	COM12		-0,158	0,007	0,967	0,305	-14,099	0,183	-2,571	12,310	42,413	84,344	73,411	67,886	20,07	96600	402,67														
 15:32:13.625	COM12		-0,092	0,009	0,997	0,366	-19,287	-0,732	-2,368	10,470	46,730	83,447	73,346	67,080	20,11	96600	402,67														
 15:32:13.726	COM12		-0,107	0,011	1,020	0,488	-13,184	-0,549	-2,170	8,652	50,795	82,394	73,281	66,222	20,09	96599	402,76														
 15:32:13.826	COM12		-0,097	0,011	1,000	0,366	-4,395	-0,916	-1,972	8,042	54,613	81,835	73,242	65,832	20,07	96599	402,76														
 15:32:13.926	COM12		-0,104	0,010	1,006	0,427	-2,075	-0,427	-1,763	7,712	58,239	81,588	73,203	65,650	20,07	96598	402,84														
 15:32:14.026	COM12		-0,101	0,011	0,998	0,000	0,000	0,000	-1,588	7,619	61,732	81,523	73,190	65,598	20,07	96599	402,76														
 15:32:14.126	COM12		0,091	0,013	1,008	0,000	-0,793	-0,244	-1,412	7,531	65,039	81,484	73,190	65,585	20,12	96600	402,67														
 15:32:14.226	COM12		-0,107	0,057	0,953	-2,930	1,221	2,747	-1,346	7,432	68,214	81,445	73,216	65,494	20,07	96600	402,67														
 15:32:14.326	COM12		-0,087	0,007	1,029	-10,376	-21,423	6,104	-1,802	5,515	71,884	80,626	73,489	64,935	20,07	96600	402,67														
 15:32:14.425	COM12		0,002	-0,022	0,992	2,380	-44,189	4,089	-2,021	3,131	75,251	79,326	73,996	63,830	20,11	96600	402,67														
 15:32:14.524	COM12		0,099	0,003	1,023	1,465	-33,203	1,770	-1,890	-0,137	78,080	77,402	74,529	62,114	20,11	96600	402,67														
 15:32:14.625	COM12		0,271	-0,008	1,001	5,859	-84,106	4,028	-1,582	-5,795	80,997	74,529	74,854	59,800	20,11	96600	402,67														
 15:32:14.725	COM12		3,032	0,001	0,937	6,409	-79,956	3,662	-1,110	-13,914	83,914	69,628	74,841	57,083	20,09	96600	402,67														
 15:32:14.824	COM12		0,525	0,352	5,467	15,015	-85,754	-0,183	0,121	-23,950	86,561	63,011	74,191	55,432	20,11	96600	402,67														
 15:32:14.926	COM12		0,527	0,029	0,848	1,892	-29,175	2,502	0,302	-28,098	88,846	58,838	73,879	54,938	20,12	96601	402,58														
 15:32:15.024	COM12		0,589	0,033	0,858	2,808	-31,494	2,625	0,472	-30,361	90,983	56,836	73,762	54,899	20,11	96601	402,58														
 15:32:15.124	COM12		0,712	0,033	0,809	5,005	-65,369	4,639	0,709	-35,096	93,203	54,002	73,541	55,172	20,12	96600	402,67														
 15:32:15.224	COM12		0,755	0,039	0,714	4,272	-62,622	3,357	0,956	-41,797	95,383	49,621	73,216	56,121	20,11	96600	402,67														
 15:32:15.324	COM12		0,783	0,040	0,658	1,160	-40,283	0,549	1,137	-45,989	97,053	46,137	73,203	57,031	20,11	96600	402,67														
 15:32:15.425	COM12		0,858	0,034	0,594	2,441	-57,556	1,831	1,368	-50,510	98,564	43,043	73,463	57,954	20,14	96599	402,76														
 15:32:15.525	COM12		1,021	0,040	0,473	7,019	-98,328	4,761	1,747	-58,519	100,250	38,116	75,335	58,747	20,11	96599	402,76														
 15:32:15.625	COM12		0,968	0,024	0,311	5,249	-60,120	1,770	2,313	-67,352	101,827	32,175	79,651	59,150	20,09	96598	402,84														
 15:32:15.724	COM12		0,920	0,029	0,267	2,808	-27,954	0,854	2,884	-70,746	102,832	29,289	81,445	60,411	20,09	96599	402,76														
 15:32:15.824	COM12		1,095	0,033	0,280	1,343	-38,696	0,000	3,675	-73,521	103,469	27,781	81,952	61,906	20,12	96600	402,67														
 15:32:15.924	COM12		0,937	0,038	0,052	1,404	-37,476	-0,549	6,064	-79,118	102,426	25,714	81,718	65,598	20,12	96600	402,67														
 15:32:16.024	COM12		1,029	0,023	0,129	1,160	-15,991	0,000	7,169	-80,145	102,629	24,856	81,510	67,327	20,07	96599	402,76														
 15:32:16.124	COM12		0,969	0,040	0,038	1,404	-31,067	-0,183	12,052	-83,628	99,058	23,946	81,263	69,693	20,11	96600	402,67														
 15:32:16.225	COM12		1,003	0,032	0,042	0,061	-5,371	0,061	15,507	-84,831	97,048	23,374	81,120	71,175	20,14	96599	402,76														
 15:32:16.325	COM12		0,992	0,034	-0,004	0,488	-19,165	0,366	23,780	-86,501	90,148	22,945	81,029	72,410	20,11	96600	402,67														
 15:32:16.425	COM12		1,001	0,032	-0,013	0,122	1,465	-0,183	33,019	-87,347	82,864	22,607	81,003	73,372	20,11	96600	402,67														
 15:32:16.525	COM12		0,992	0,033	-0,021	0,183	-3,052	0,000	38,793	-87,556	80,041	22,529	80,977	73,606	20,12	96600	402,67														
 15:32:16.625	COM12		1,016	0,034	-0,011	0,061	0,488	-0,122	41,874	-87,567	80,112	22,529	80,977	73,632	20,14	96600	402,67														
 15:32:16.725	COM12		0,978	0,033	-0,016	-1,221	22,278	-0,549	35,502	-86,957	90,049	22,672	81,003	73,112	20,11	96600	402,67														
 15:32:16.825	COM12		1,047	0,034	0,080	-1,953	35,339	-0,183	20,566	-84,133	110,039	23,413	81,172	70,902	20,11	96600	402,67														
 15:32:16.925	COM12		0,893	0,033	0,073	-7,019	85,388	0,244	12,849	-79,453	123,695	24,817	81,588	67,288	20,12	96600	402,67														
 15:32:17.023	COM12		0,976	0,032	0,328	-2,502	73,242	-1,465	8,767	-70,637	134,368	28,184	82,186	61,256	20,15	96602	402,5														
 15:32:17.124	COM12		0,856	0,035	0,329	-0,549	35,339	-0,854	8,432	-66,396	141,553	30,914	82,550	57,577	20,11	96601	402,58														
 15:32:17.224	COM12		0,758	0,033	0,479	-2,991	96,741	-1,404	7,493	-59,013	149,271	34,476	82,927	53,859	20,14	96601	402,58														
 15:32:17.324	COM12		0,683	0,038	0,640	-1,465	67,810	-1,526	6,905	-50,801	156,698	39,650	83,512	50,011	20,15	96602	402,5														
 15:32:17.423	COM12		0,511	0,035	0,720	-2,686	77,332	-2,808	6,570	-43,797	163,696	44,525	84,032	47,580	20,14	96602	402,5														
 15:32:17.523	COM12		0,489	0,028	0,846	-4,761	79,102	-5,981	6,086	-34,728	170,354	50,557	84,630	45,929	20,14	96601	402,58														
 15:32:17.623	COM12		0,373	0,023	0,866	-4,028	62,683	-5,432	5,905	-28,916	176,545	55,419	85,020	45,487	20,14	96601	402,58														
 15:32:17.723	COM12		0,305	0,035	0,941	-2,869	56,396	-4,028	5,718	-23,022	-177,369	59,761	85,306	45,838	20,11	96600	402,67														
 15:32:17.823	COM12		0,214	0,037	0,988	-8,667	62,073	-5,798	5,345	-17,534	-171,552	63,791	85,618	46,657	20,17	96600	402,67														
 15:32:17.924	COM12		0,111	0,031	0,993	-12,329	60,852	-4,211	4,427	-11,772	-165,916	67,899	86,320	47,801	20,14	96600	402,67														
 15:32:18.024	COM12		0,067	-0,030	0,983	-10,376	50,903	-2,380	3,461	-6,735	-160,411	71,799	87,360	49,231	20,14	96600	402,67														
 15:32:18.124	COM12		0,073	-0,027	0,973	-3,540	7,263	-2,930	2,840	-5,350	-155,242	73,788	88,140	49,959	20,17	96600	402,67														
 15:32:18.224	COM12		0,069	-0,026	1,000	0,549	-7,507	-2,136	2,576	-5,394	-150,458	74,334	88,465	50,089	20,15	96599	402,76														
 15:32:18.324	COM12		0,098	-0,029	1,012	0,671	-1,831	-3,357	2,466	-5,845	-145,904	74,230	88,478	49,933	20,17	96599	402,76														
 15:32:18.422	COM12		0,091	-0,025	1,019	0,977	3,235	-1,709	2,379	-6,235	-141,526	73,944	88,517	49,725	20,14	96600	402,67														
 15:32:18.522	COM12		0,114	-0,029	0,986	3,113	-0,916	0,610	2,313	-6,284	-137,104	73,918	88,452	49,712	20,11	96600	402,67														
 15:32:18.624	COM12		-0,035	-0,015	0,987	22,217	36,316	-8,789	3,065	-5,345	-133,077	74,204	87,971	50,076	20,17	96600	402,67														
 15:32:18.724	COM12		-0,060	0,056	1,018	43,457	17,456	-4,944	6,141	-2,082	-129,479	75,699	86,372	51,337	20,14	96600	402,67														
 15:32:18.824	COM12		-0,063	0,164	1,027	54,504	22,034	-5,554	10,701	0,143	-125,931	76,934	83,681	52,455	20,15	96599	402,76														
 15:32:18.924	COM12		-0,091	0,271	0,966	51,880	29,663	-5,737	15,661	2,181	-122,217	78,403	80,613	53,521	20,15	96599	402,76														
 15:32:19.022	COM12		-0,125	0,344	0,886	66,406	6,409	-6,104	21,220	3,527	-118,867	79,924	77,298	54,990	20,14	96598	402,84														
 15:32:19.122	COM12		-0,146	0,435	0,873	64,758	8,850	-3,967	27,521	4,883	-115,686	81,237	73,697	57,239	20,12	96596	403,01														
 15:32:19.222	COM12		-0,160	0,526	0,808	59,631	0,366	-4,089	33,267	5,251	-112,747	82,095	70,460	59,683	20,12	96597	402,93														
 15:32:19.322	COM12		-0,167	0,596	0,835	55,847	-3,540	-1,221	38,738	5,213	-110,270	82,407	67,639	62,049	20,14	96597	402,93														
 15:32:19.423	COM12		-0,136	0,671	0,708	51,086	-4,700	3,174	43,440	4,697	-107,743	82,199	65,247	64,298	20,14	96597	402,93														
 15:32:19.523	COM12		-0,144	0,751	0,671	46,631	1,526	7,385	48,010	4,213	-104,952	81,796	62,959	66,846	20,17	96597	402,93														
 15:32:19.622	COM12		-0,112	0,798	0,615	47,119	3,784	10,010	52,262	3,576	-101,915	81,510	60,580	69,810	20,12	96598	402,84														
 15:32:19.722	COM12		-0,112	0,855	0,558	50,842	2,869	4,089	56,915	3,148	-99,152	81,328	57,993	73,190	20,14	96597	402,93														
 15:32:19.823	COM12		-0,104	0,914	0,465	50,293	-2,502	-2,075	61,688	3,246	-96,855	81,393	55,510	76,843	20,15	96597	402,93														
 15:32:19.923	COM12		-0,112	0,881	0,383	51,025	-4,944	1,526	66,407	3,274	-95,229	81,471	53,326	80,561	20,15	96596	403,01														
 15:32:20.022	COM12		-0,076	0,958	0,319	43,579	-3,662	6,104	71,005	2,780	-93,543	81,068	52,026	83,772	20,14	96597	402,93														
 15:32:20.122	COM12		-0,062	0,994	0,205	35,400	3,113	3,174	74,729	2,225	-91,890	79,638	54,119	83,759	20,17	96598	402,84														
 15:32:20.222	COM12		-0,088	1,006	0,150	33,386	1,709	0,916	77,981	2,186	-90,176	78,208	57,525	82,550	20,14	96598	402,84														
 15:32:20.322	COM12		-0,066	0,978	0,125	31,555	-3,174	2,991	81,052	2,054	-88,687	76,817	60,840	81,276	20,15	96598	402,84														
 15:32:20.422	COM12		-0,069	1,002	0,080	26,794	0,000	3,601	83,831	1,813	-87,270	75,309	64,740	79,313	20,14	96598	402,84														
 15:32:20.522	COM12		-0,054	1,003	0,020	18,433	-0,061	3,784	86,072	1,588	-85,798	73,476	69,979	75,621	20,17	96598	402,84														
 15:32:20.622	COM12		-0,052	1,009	0,001	11,414	-1,831	3,479	87,451	1,384	-84,293	71,422	74,087	72,072	20,17	96599	402,76														
 15:32:20.721	COM12		-0,060	1,009	-0,011	3,784	-0,610	0,916	88,303	1,258	-83,095	69,888	77,168	69,264	20,17	96599	402,76														
 15:32:20.822	COM12		-0,054	1,010	0,003	-3,662	1,282	-1,526	88,467	1,417	-81,865	69,056	79,066	67,431	20,15	96599	402,76														
 15:32:20.922	COM12		-0,073	1,070	0,081	-25,574	3,662	-1,648	87,374	1,692	-80,508	68,861	79,833	66,261	20,17	96599	402,76														
 15:32:21.022	COM12		-0,106	1,070	0,181	-66,589	9,827	-7,263	83,145	2,098	-78,970	69,017	79,937	64,155	20,15	96599	402,76														
 15:32:21.122	COM12		-0,156	1,025	0,273	-81,482	14,221	-25,452	75,877	4,125	-76,849	70,226	80,639	60,827	20,17	96601	402,58														
 15:32:21.223	COM12		-0,189	0,911	0,453	-111,816	19,836	-26,855	66,209	7,300	-74,877	77,402	66,300	73,736	20,18	96600	402,67														
 15:32:21.323	COM12		-0,254	0,895	0,557	-138,794	2,869	-21,729	53,976	10,031	-73,911	88,725	34,749	96,642	20,17	96599	402,76														
 15:32:21.423	COM12		-0,181	0,822	0,633	-145,569	-17,883	-24,658	39,875	10,245	-75,828	93,405	20,930	101,699	20,17	96600	402,67														
 15:32:21.522	COM12		-0,313	0,508	0,784	-134,460	11,841	-21,851	26,779	12,255	-77,003	94,042	25,610	96,278	20,18	96600	402,67														
 15:32:21.622	COM12		-0,250	0,259	0,880	-129,395	5,981	-19,531	14,183	13,942	-77,531	94,146	33,007	91,286	20,18	96600	402,67														
 15:32:21.722	COM12		-0,149	0,068	0,959	-117,554	-17,090	-18,799	2,186	13,321	-79,036	93,145	40,742	87,087	20,17	96600	402,67														
 15:32:21.822	COM12		-0,221	-0,197	0,910	-84,595	-9,277	-5,432	-7,482	12,057	-79,448	91,585	47,593	84,149	20,17	96597	402,93														
 15:32:21.921	COM12		-0,289	-0,250	0,947	-52,429	6,348	-0,916	-13,425	12,711	-78,805	90,935	52,273	83,122	20,15	96599	402,76														
 15:32:22.021	COM12		-0,206	-0,338	0,886	-52,307	7,874	-10,803	-18,572	12,958	-78,882	90,220	57,096	81,809	20,17	96599	402,76														
 15:32:22.121	COM12		-0,176	-0,407	0,837	-59,082	-4,517	-16,357	-24,329	12,552	-79,761	88,582	65,143	78,455	20,17	96598	402,84														
 15:32:22.222	COM12		-0,267	-0,492	0,812	-51,025	4,333	6,470	-29,663	12,090	-79,420	86,502	74,204	74,464	20,18	96597	402,93														
 15:32:22.321	COM12		-0,252	-0,597	0,799	-50,964	1,648	5,066	-34,420	12,563	-78,338	84,916	82,693	70,785	20,17	96597	402,93														
 15:32:22.422	COM12		-0,211	-0,619	0,765	-59,509	-12,512	-8,728	-39,595	11,975	-77,476	82,069	94,380	63,999	20,18	96597	402,93														
 15:32:22.521	COM12		-0,050	-0,721	0,646	-65,063	-23,254	-19,043	-45,698	9,800	-76,893	77,259	111,293	52,377	20,17	96597	402,93														
 15:32:22.622	COM12		-0,059	-0,754	0,591	-58,899	-21,667	-19,165	-51,597	6,801	-75,905	70,733	130,572	38,077	20,18	96598	402,84														
 15:32:22.722	COM12		0,044	-0,883	0,487	-54,993	-23,804	-15,137	-57,014	4,235	-74,685	61,893	153,842	16,302	20,18	96598	402,84														
 15:32:22.821	COM12		0,019	-0,893	0,356	-54,565	-24,597	-2,808	-62,369	2,368	-72,724	49,881	177,866	-16,172	20,18	96597	402,93														
 15:32:22.921	COM12		-0,042	-0,934	0,297	-56,641	-25,024	8,728	-67,802	1,945	-70,071	37,583	197,600	-51,844	20,22	96597	402,93														
 15:32:23.021	COM12		-0,068	-0,955	0,180	-46,021	-6,409	13,306	-72,944	2,725	-68,011	28,158	214,357	-83,265	20,22	96597	402,93														
 15:32:23.121	COM12		-0,125	-1,009	0,101	-5,127	-3,113	-7,080	-75,487	2,802	-67,566	16,120	232,557	-125,762	20,14	96597	402,93														
 15:32:23.221	COM12		-0,036	-1,052	0,151	0,244	-26,123	-5,066	-75,504	1,989	-67,758	-4,823	255,450	-192,634	20,20	96597	402,93														
 15:32:23.321	COM12		-0,028	-0,992	0,115	5,676	-8,118	-7,629	-75,498	1,406	-67,313	-30,186	281,294	-263,627	20,17	96598	402,84														
 15:32:23.421	COM12		0,123	-0,959	0,148	14,832	-6,409	-16,663	-74,778	0,242	-66,940	-58,175	303,043	-330,798	20,17	96596	403,01														
 15:32:23.521	COM12		0,142	-1,001	0,150	51,636	13,428	-10,864	-72,021	-0,895	-67,626	-87,659	318,045	-384,189	20,20	96598	402,84														
 15:32:23.620	COM12		-0,185	-1,026	0,329	106,506	71,838	-14,893	-64,061	-0,835	-71,213	-113,581	320,749	63,882	20,18	96599	402,76														
 15:32:23.720	COM12		-0,149	-0,781	0,742	110,046	37,292	46,814	-54,822	4,444	-74,844	-129,259	312,182	365,352	20,23	96599	402,76														
 15:32:23.820	COM12		-0,206	-0,598	0,708	150,574	-12,024	25,269	-41,600	8,591	-74,663	-134,992	302,263	396,032	20,20	96599	402,76														
 15:32:23.920	COM12		-0,026	-0,344	0,825	145,508	-28,564	18,188	-26,955	9,174	-72,328	-137,111	294,437	397,553	20,18	96597	402,93														
 15:32:24.020	COM12		-0,043	-0,050	0,981	123,413	-9,033	14,404	-13,771	7,097	-69,681	-138,463	288,509	397,085	20,17	96597	402,93														
 15:32:24.120	COM12		-0,077	0,088	1,023	74,036	-3,662	22,461	-3,625	6,306	-67,802	-138,957	283,959	396,825	20,20	96598	402,84														
 15:32:24.220	COM12		-0,134	0,064	1,046	17,273	-1,343	13,245	0,692	5,960	-65,715	-138,905	282,009	396,734	20,20	96597	402,93														
 15:32:24.321	COM12		-0,048	-0,083	1,114	-28,870	-30,701	-2,991	-0,148	6,229	-65,391	-138,489	283,036	396,721	20,22	96600	402,67														
 15:32:24.420	COM12		-0,043	-0,142	1,002	-24,658	-24,292	1,099	-3,664	2,966	-65,484	-139,919	285,402	396,578	20,20	96601	402,58														
 15:32:24.520	COM12		-0,017	-0,132	1,079	0,854	-21,362	1,221	-5,043	1,170	-65,067	-141,193	286,494	396,591	20,22	96601	402,58														
 15:32:24.620	COM12		0,024	-0,020	1,014	9,399	-14,771	-0,793	-4,197	-0,082	-64,968	-142,194	286,156	396,591	20,20	96600	402,67														
 15:32:24.721	COM12		0,061	-0,039	1,006	1,282	1,953	11,047	-3,538	-0,659	-64,325	-142,597	285,714	396,630	20,18	96599	402,76														
 15:32:24.821	COM12		0,021	-0,059	1,004	-7,751	-11,047	8,240	-3,752	-1,714	-63,270	-142,805	285,571	396,760	20,20	96599	402,76														
 15:32:24.920	COM12		0,061	-0,066	1,030	5,615	3,357	7,202	-3,625	-3,131	-62,639	-143,403	285,558	396,799	20,22	96598	402,84														
 15:32:25.020	COM12		-0,245	-0,050	1,031	-3,540	-8,179	11,047	-3,477	-2,922	-61,595	-143,052	285,324	396,864	20,20	96599	402,76														
 15:32:25.121	COM12		-0,043	-0,095	0,945	10,498	5,859	3,540	-3,290	2,005	-60,886	-140,517	285,246	397,384	20,23	96599	402,76														
 15:32:25.219	COM12		-0,025	0,070	0,958	16,052	-3,601	-1,709	-1,939	1,681	-60,963	-139,269	285,038	397,774	20,18	96601	402,58														
 15:32:25.319	COM12		-0,074	0,046	1,001	19,409	2,441	1,648	-0,038	1,747	-60,705	-138,281	284,596	398,346	20,20	96598	402,84														
 15:32:25.419	COM12		-0,033	0,026	0,953	-1,831	1,526	-3,174	0,352	1,780	-60,947	-136,448	285,077	398,996	20,22	96597	402,93														
 15:32:25.519	COM12		-0,009	-0,010	1,000	-0,671	1,160	-8,728	0,390	1,637	-61,639	-133,432	286,403	399,620	20,20	96598	402,84														
 15:32:25.619	COM12		-0,008	-0,052	1,009	0,427	-0,854	-2,930	0,385	1,511	-62,073	-129,857	287,664	400,218	20,20	96598	402,84														
 15:32:25.721	COM12		-0,023	-0,087	1,013	0,061	-0,122	-6,348	0,297	1,467	-62,408	-126,854	288,470	400,673	20,17	96598	402,84														
 15:32:25.820	COM12		-0,023	0,015	1,009	0,000	0,000	0,000	0,143	1,439	-62,479	-126,087	288,704	400,777	20,20	96598	402,84														
 15:32:25.920	COM12		-0,023	0,015	1,009	0,000	0,000	0,000	0,110	1,417	-62,441	-125,996	288,730	400,777	20,20	96599	402,76														
 15:32:26.020	COM12		-0,023	0,016	1,009	0,000	0,000	0,000	0,121	1,401	-62,402	-125,983	288,730	400,764	20,23	96599	402,76														
 15:32:26.120	COM12		-0,023	0,015	1,008	0,000	0,000	0,000	0,148	1,384	-62,364	-125,983	288,730	400,777	20,20	96600	402,67														
 15:32:26.220	COM12		-0,022	0,015	1,008	0,000	0,000	0,000	0,176	1,368	-62,331	-125,996	288,730	400,777	20,20	96600	402,67														
 15:32:26.320	COM12		-0,023	0,015	1,008	0,000	0,000	0,000	0,209	1,357	-62,298	-125,983	288,730	400,777	20,20	96599	402,76														
 15:32:26.421	COM12		-0,023	0,016	1,009	0,000	0,000	0,000	0,236	1,346	-62,265	-125,983	288,743	400,790	20,20	96600	402,67														
 15:32:26.520	COM12		-0,023	0,015	1,009	0,000	0,000	0,000	0,269	1,335	-62,238	-125,983	288,730	400,790	20,22	96600	402,67														
 15:32:26.620	COM12		-0,022	0,015	1,009	0,000	0,000	0,000	0,297	1,324	-62,210	-125,983	288,730	400,790	20,17	96600	402,67														
 15:32:26.720	COM12		-0,025	0,015	1,009	0,061	0,061	0,000	0,319	1,318	-62,183	-125,983	288,717	400,790	20,25	96600	402,67														
 15:32:26.819	COM12		-0,023	0,018	1,025	0,000	0,000	0,000	0,346	1,307	-62,161	-125,983	288,717	400,790	20,23	96600	402,67														
 15:32:26.919	COM12		-0,025	0,017	1,016	-0,061	-0,061	0,000	0,368	1,302	-62,139	-125,970	288,730	400,790	20,22	96599	402,76														
 15:32:27.019	COM12		-0,024	0,018	1,019	0,000	0,000	0,000	0,390	1,296	-62,117	-125,983	288,717	400,790	20,22	96599	402,76														
 15:32:27.120	COM12		-0,024	0,017	1,013	0,000	0,000	0,000	0,406	1,291	-62,095	-125,970	288,730	400,803	20,22	96600	402,67														
 15:32:27.220	COM12		-0,023	0,016	1,010	0,000	0,000	0,000	0,428	1,285	-62,078	-125,970	288,730	400,777	20,22	96600	402,67														
 15:32:27.320	COM12		-0,023	0,016	1,009	0,000	0,000	0,000	0,445	1,280	-62,062	-125,970	288,730	400,803	20,25	96600	402,67														
 15:32:27.420	COM12		-0,023	0,016	1,009	0,000	0,000	0,000	0,461	1,274	-62,045	-125,957	288,743	400,790	20,20	96599	402,76														
 15:32:27.519	COM12		-0,023	0,016	1,008	0,000	0,000	0,000	0,478	1,269	-62,029	-125,957	288,717	400,790	20,20	96599	402,76														
 15:32:27.619	COM12		-0,023	0,016	1,009	0,000	0,000	0,000	0,494	1,263	-62,012	-125,957	288,717	400,790	20,23	96599	402,76														
