Time,Device name,Chip Time(),Acceleration X(g),Acceleration Y(g),Acceleration Z(g),Angular velocity X(°/s),Angular velocity Y(°/s),Angular velocity Z(°/s),Angle X(°),Angle Y(°),Angle Z(°),Magnetic field X(ʯt),Magnetic field Y(ʯt),Magnetic field Z(ʯt),Temperature(℃),Pressure(Pa),Height(m),Longitude(),Latitude(),GPS ground speed(km),Angle of course(°),GPS height(m),Number of satellites(),Position location(),Horizontal position(),Vertical position(),Quaternions 0(),Quaternions 1(),Quaternions 2(),Quaternions 3(),Delta_t,Position X,Position Y,Position Z
1900-01-01 05:11:18.625,COM12,,"-0,021","0,017","1,008","0,0","0,0","0,0","0,851","1,044","0,665","69,758","45,968","98,332","18,35",96787,"386,73",,,,,,,,,,,,,,,"-2,0640895315503873e-05","1,6320137715242428e-05","8,468835783620642e-06"
1900-01-01 05:11:18.720,COM12,,"-0,021","0,016","1,008","0,0","0,0","0,0","0,846","1,044","0,665","69,758","45,968","98,345","18,34",96787,"386,73",,,,,,,,,,,,,,"0,095","-6,191159994283723e-05","4,7980289076938214e-05","2,539058053896104e-05"
1900-01-01 05:11:18.820,COM12,,"-0,021","0,017","1,008","0,0","0,0","0,0","0,846","1,049","0,665","69,732","45,955","98,332","18,35",96787,"386,73",,,,,,,,,,,,,,"0,1","-0,00012382249546348423","9,596129272131234e-05","5,078150085362047e-05"
1900-01-01 05:11:18.919,COM12,,"-0,021","0,016","1,008","0,0","0,0","0,0","0,84","1,049","0,665","69,745","45,955","98,332","18,37",96787,"386,73",,,,,,,,,,,,,,"0,099","-0,00020636250229541606","0,00015928316410528714","8,46254836016647e-05"
1900-01-01 05:11:19.019,COM12,,"-0,022","0,017","1,009","0,0","0,0","0,0","0,84","1,049","0,665","69,745","45,955","98,332","18,35",96788,"386,65",,,,,,,,,,,,,,"0,1","-0,00031050538771105015","0,00023890117873205397","0,00012793559788842212"
1900-01-01 05:11:19.119,COM12,,"-0,022","0,017","1,008","0,0","0,0","0,0","0,835","1,055","0,665","69,745","45,955","98,332","18,39",96787,"386,73",,,,,,,,,,,,,,"0,1","-0,00043626842128122493","0,0003348302249328471","0,00017973191272470878"
1900-01-01 05:11:19.219,COM12,,"-0,021","0,017","1,008","0,0","0,0","0,0","0,835","1,055","0,665","69,745","45,942","98,332","18,39",96787,"386,73",,,,,,,,,,,,,,"0,1","-0,0005826708353667359","0,0004470816864391296","0,00023999636575886888"
1900-01-01 05:11:19.319,COM12,,"-0,022","0,016","1,008","0,0","0,0","0,0","0,829","1,055","0,665","69,745","45,955","98,332","18,37",96787,"386,73",,,,,,,,,,,,,,"0,1","-0,0007506823162121796","0,000574664191921237","0,0003087310943715503"
1900-01-01 05:11:19.419,COM12,,"-0,021","0,016","1,008","0,0","0,0","0,0","0,829","1,06","0,665","69,758","45,955","98,332","18,39",96787,"386,73",,,,,,,,,,,,,,"0,1","-0,000939321358555425","0,0007175891336721929","0,0003859198206770834"
1900-01-01 05:11:19.520,COM12,,"-0,021","0,017","1,008","0,0","0,0","0,0","0,829","1,06","0,665","69,745","45,955","98,332","18,39",96787,"386,73",,,,,,,,,,,,,,"0,101","-0,0011485990843144935","0,0008768373459898879","0,0004715767356240233"
1900-01-01 05:11:19.619,COM12,,"-0,022","0,017","1,008","0,0","0,0","0,0","0,824","1,06","0,665","69,745","45,955","98,332","18,35",96787,"386,73",,,,,,,,,,,,,,"0,099","-0,0013794962944758964","0,0010523981505920876","0,0005657185420927651"
1900-01-01 05:11:19.719,COM12,,"-0,021","0,017","1,008","0,0","0,0","0,0","0,824","1,06","0,665","69,758","45,968","98,332","18,37",96787,"386,73",,,,,,,,,,,,,,"0,1","-0,0016310322229802947","0,0012442829311919178","0,0006683270921378342"
1900-01-01 05:11:19.820,COM12,,"-0,021","0,017","1,008","0,0","0,0","0,0","0,824","1,06","0,665","69,758","45,955","98,332","18,35",96787,"386,73",,,,,,,,,,,,,,"0,101","-0,0019032068698276888","0,0014524916877893786","0,0007794023857592306"
1900-01-01 05:11:19.919,COM12,,"-0,021","0,017","1,008","0,0","0,0","0,0","0,818","1,066","0,665","69,758","45,955","98,332","18,37",96787,"386,73",,,,,,,,,,,,,,"0,099","-0,0021960193904241405","0,001677025277024683","0,0008989448300503829"
1900-01-01 05:11:20.019,COM12,,"-0,021","0,016","1,008","0,0","0,0","0,0","0,818","1,066","0,665","69,745","45,942","98,332","18,35",96787,"386,73",,,,,,,,,,,,,,"0,1","-0,0025094586608029063","0,0019169028619166822","0,0010269404223767434"
1900-01-01 05:11:20.119,COM12,,"-0,021","0,017","1,007","0,0","0,0","0,0","0,818","1,066","0,665","69,745","45,955","98,345","18,39",96787,"386,73",,,,,,,,,,,,,,"0,1","-0,0028435542150447345","0,002173119071762844","0,0011624224351144744"
1900-01-01 05:11:20.219,COM12,,"-0,021","0,017","1,007","0,0","0,0","0,0","0,818","1,066","0,665","69,758","45,942","98,345","18,35",96787,"386,73",,,,,,,,,,,,,,"0,1","-0,003198306053149625","0,00244567390656317","0,0013053908682635754"
1900-01-01 05:11:20.319,COM12,,"-0,022","0,016","1,006","0,0","0,0","0,0","0,818","1,066","0,665","69,745","45,955","98,345","18,39",96787,"386,73",,,,,,,,,,,,,,"0,1","-0,00357470222541848","0,0027335889379618223","0,0014548692395889883"
1900-01-01 05:11:20.419,COM12,,"-0,022","0,017","1,008","0,0","0,0","0,0","0,818","1,066","0,665","69,758","45,942","98,358","18,39",96787,"386,73",,,,,,,,,,,,,,"0,1","-0,003972717035590032","0,0030378174183073123","0,0016128330122420315"
1900-01-01 05:11:20.519,COM12,,"-0,021","0,016","1,007","0,0","0,0","0,0","0,813","1,071","0,665","69,758","45,929","98,371","18,37",96787,"386,73",,,,,,,,,,,,,,"0,1","-0,0043913763861516105","0,003357404312551166","0,0017782696277685174"
1900-01-01 05:11:20.619,COM12,,"-0,019","0,017","1,009","0,0","0,0","0,0","0,813","1,071","0,665","69,758","45,903","98,371","18,39",96787,"386,73",,,,,,,,,,,,,,"0,1","-0,00482869288690277","0,0036933258147758973","0,001953117790453386"
1900-01-01 05:11:20.719,COM12,,"-0,021","0,017","1,01","0,0","0,0","0,0","0,813","1,071","0,665","69,758","45,903","98,384","18,39",96787,"386,73",,,,,,,,,,,,,,"0,1","-0,005286609568235878","0,00404554545190777","0,0021383949026797812"
1900-01-01 05:11:20.820,COM12,,"-0,022","0,017","1,009","0,0","0,0","0,0","0,813","1,071","0,665","69,745","45,929","98,358","18,39",96787,"386,73",,,,,,,,,,,,,,"0,101","-0,005766125687430596","0,004414065546003086","0,002333138570818724"
1900-01-01 05:11:20.920,COM12,,"-0,023","0,044","1,008","0,0","0,0","0,0","0,818","1,071","0,665","69,524","46,709","97,773","18,37",96787,"386,73",,,,,,,,,,,,,,"0,1","-0,006268540780674089","0,004825370312841924","0,002536765916954038"
1900-01-01 05:11:21.020,COM12,,"-0,023","0,059","1,007","0,244","0,0","0,0","0,873","1,077","0,665","67,067","54,938","91,897","18,35",96787,"386,73",,,,,,,,,,,,,,"0,1","-0,006794038206867699","0,005294178710153869","0,002748564045609551"
1900-01-01 05:11:21.120,COM12,,"-0,024","0,099","1,007","0,0","-0,061","0,061","0,983","1,077","0,67","58,682","80,249","71,708","18,37",96787,"386,73",,,,,,,,,,,,,,"0,1","-0,00734404761485912","0,005859693988433848","0,0029693353402491657"
1900-01-01 05:11:21.219,COM12,,"-0,024","0,088","1,007","-0,122","0,122","-0,183","1,159","1,088","0,67","37,830","130,013","18,070","18,37",96787,"386,73",,,,,,,,,,,,,,"0,099","-0,007918439300122468","0,006511101466278377","0,0031991638871210156"
1900-01-01 05:11:21.319,COM12,,"-0,021","0,078","1,006","0,183","0,0","0,183","1,329","1,093","0,676","4,030","178,061","-73,541","18,35",96788,"386,65",,,,,,,,,,,,,,"0,1","-0,008514181631089041","0,007238623244046069","0,0034370431355934777"
1900-01-01 05:11:21.419,COM12,,"-0,019","-0,017","1,009","-0,061","0,0","-0,244","1,406","1,11","0,621","-45,643","229,021","-209,872","18,39",96786,"386,82",,,,,,,,,,,,,,"0,1","-0,009128212279438469","0,007949057189215562","0,0036836990186943086"
1900-01-01 05:11:21.518,COM12,,"-0,022","-0,004","1,009","-0,549","-0,122","0,0","1,34","1,104","0,61","-100,828","271,752","-336,401","18,35",96786,"386,82",,,,,,,,,,,,,,"0,099","-0,009763607449403664","0,008655134038661538","0,003939503927644129"
1900-01-01 05:11:21.618,COM12,,"-0,022","0,009","1,009","0,0","0,366","0,0","1,247","1,104","0,61","-148,538","284,284","-13,676","18,39",96781,"387,25",,,,,,,,,,,,,,"0,1","-0,010420497556192865","0,009369617290390318","0,004204742038467737"
1900-01-01 05:11:21.718,COM12,,"-0,019","0,075","1,005","-0,183","0,061","0,122","1,241","1,121","0,604","-183,677","255,918","345,475","18,40",96780,"387,33",,,,,,,,,,,,,,"0,1","-0,011096669250229486","0,010157352864302804","0,004476840882409225"
1900-01-01 05:11:21.818,COM12,,"-0,022","0,06","1,008","-0,305","0,0","-0,244","1,302","1,121","0,588","-197,795","165,633","380,523","18,35",96781,"387,25",,,,,,,,,,,,,,"0,1","-0,011794840079994932","0,011003532232133916","0,004758543600963705"
1900-01-01 05:11:21.918,COM12,,"-0,019","0,012","1,009","-0,305","0,0","0,0","1,307","1,11","0,571","-151,593","-39,936","247,208","18,34",96786,"386,82",,,,,,,,,,,,,,"0,1","-0,012511584581768494","0,011861094618658977","0,005049700902509943"
1900-01-01 05:11:22.018,COM12,,"-0,02","-0,073","1,011","-0,488","0,0","0,122","1,225","1,104","0,566","-61,607","-218,218","-243,568","18,37",96787,"386,73",,,,,,,,,,,,,,"0,1","-0,01324705658638673","0,012646641163582996","0,005350492053011621"
1900-01-01 05:11:22.118,COM12,,"-0,026","-0,031","1,008","-0,366","0,122","0,0","1,06","1,088","0,566","8,606","-267,813","-153,140","18,39",96787,"386,73",,,,,,,,,,,,,,"0,1","-0,014007588649903601","0,013401387672980214","0,005659050269918626"
1900-01-01 05:11:22.218,COM12,,"-0,02","-0,005","1,009","-0,427","0,0","0,183","0,912","1,082","0,566","63,063","-287,872","13,195","18,37",96787,"386,73",,,,,,,,,,,,,,"0,1","-0,01478752120470891","0,014150897373537046","0,0059767272277988425"
1900-01-01 05:11:22.319,COM12,,"-0,018","-0,022","1,007","-0,244","0,122","-0,061","0,791","1,082","0,571","106,002","-289,159","153,660","18,37",96787,"386,73",,,,,,,,,,,,,,"0,101","-0,015584767703801532","0,014878558701096764","0,006301304860109481"
1900-01-01 05:11:22.419,COM12,,"-0,021","-0,012","1,009","-0,427","0,0","-0,244","0,687","1,082","0,566","134,082","-265,083","239,161","18,35",96787,"386,73",,,,,,,,,,,,,,"0,1","-0,01640232916299615","0,015594141745374124","0,006634957176712451"
1900-01-01 05:11:22.519,COM12,,"-0,02","-0,027","1,01","-0,488","-0,122","0,0","0,593","1,071","0,555","155,844","-243,490","298,207","18,39",96787,"386,73",,,,,,,,,,,,,,"0,1","-0,017239070519752764","0,0162829506377595","0,006978509896790853"
1900-01-01 05:11:22.619,COM12,,"-0,018","-0,055","1,009","-0,183","0,0","-0,061","0,45","1,066","0,555","178,620","-237,523","343,889","18,39",96787,"386,73",,,,,,,,,,,,,,"0,1","-0,01809278634558478","0,016917569887935614","0,007330794644516984"
1900-01-01 05:11:22.719,COM12,,"-0,029","-0,065","1,01","-0,061","0,061","0,061","0,302","1,06","0,555","195,546","-233,727","372,450","18,37",96786,"386,82",,,,,,,,,,,,,,"0,1","-0,018974151570189234","0,01748810248619943","0,007693077828130508"
1900-01-01 05:11:22.819,COM12,,"-0,02","0,029","1,008","0,0","0,061","0,549","0,093","1,066","0,577","203,138","-230,061","384,358","18,37",96786,"386,82",,,,,,,,,,,,,,"0,1","-0,019875271911271985","0,018086873798857518","0,008063618825455157"
1900-01-01 05:11:22.919,COM12,,"-0,021","0,009","1,008","0,0","0,061","0,0","-0,016","1,066","0,621","204,165","-229,593","385,957","18,39",96787,"386,73",,,,,,,,,,,,,,"0,1","-0,020796938241220607","0,01869425412517403","0,008442387262925594"
1900-01-01 05:11:23.019,COM12,,"-0,02","0,009","1,008","-0,061","0,0","-0,122","-0,044","1,055","0,615","204,295","-229,593","386,139","18,39",96787,"386,73",,,,,,,,,,,,,,"0,1","-0,021738170580892426","0,019310259959491174","0,008829356835698103"
1900-01-01 05:11:23.120,COM12,,"-0,02","0,009","1,008","-0,061","0,0","-0,061","-0,038","1,055","0,615","204,295","-229,671","386,139","18,37",96787,"386,73",,,,,,,,,,,,,,"0,101","-0,022698968904440054","0,019934890480860265","0,009224528468774432"
1900-01-01 05:11:23.220,COM12,,"-0,02","0,009","1,008","-0,061","0,061","-0,061","-0,027","1,049","0,61","204,269","-229,736","386,087","18,39",96787,"386,73",,,,,,,,,,,,,,"0,1","-0,023679333270828818","0,020568145882229272","0,009627901818593361"
1900-01-01 05:11:23.320,COM12,,"-0,02","0,009","1,008","-0,061","0,061","0,0","-0,011","1,049","0,61","204,256","-229,788","386,074","18,35",96787,"386,73",,,,,,,,,,,,,,"0,1","-0,024679263611587007","0,02121002397344573","0,010039479350990083"
1900-01-01 05:11:23.418,COM12,,"-0,02","0,009","1,008","-0,061","0,061","0,0","0,005","1,049","0,61","204,256","-229,814","386,061","18,39",96787,"386,73",,,,,,,,,,,,,,"0,098","-0,02569875985824677","0,02186052256366848","0,010459263531188022"
1900-01-01 05:11:23.518,COM12,,"-0,019","0,009","1,008","0,0","0,061","0,0","0,022","1,049","0,61","204,256","-229,853","386,061","18,39",96787,"386,73",,,,,,,,,,,,,,"0,1","-0,026736841158064344","0,022519649766651457","0,01088723901817764"
1900-01-01 05:11:23.619,COM12,,"-0,02","0,008","1,008","-0,061","0,061","0,0","0,038","1,055","0,61","204,256","-229,866","386,061","18,39",96787,"386,73",,,,,,,,,,,,,,"0,101","-0,027794476930545934","0,02318641201269766","0,011323427624200542"
1900-01-01 05:11:23.719,COM12,,"-0,02","0,01","1,007","0,0","0,122","0,0","0,055","1,055","0,61","204,243","-229,879","386,048","18,37",96787,"386,73",,,,,,,,,,,,,,"0,1","-0,02887170603275985","0,023862769609571163","0,01176685272533512"
1900-01-01 05:11:23.819,COM12,,"-0,02","0,009","1,008","-0,061","0,061","0,0","0,071","1,055","0,61","204,256","-229,879","386,048","18,39",96787,"386,73",,,,,,,,,,,,,,"0,1","-0,029968499897966138","0,02454773867011694","0,0122184966759922"
1900-01-01 05:11:23.917,COM12,,"-0,02","0,009","1,008","0,0","0,061","0,0","0,088","1,055","0,61","204,256","-229,905","386,048","18,37",96787,"386,73",,,,,,,,,,,,,,"0,098","-0,031084858453165075","0,025241316862798995","0,012678362092111815"
1900-01-01 05:11:24.019,COM12,,"-0,02","0,008","1,009","0,0","0,0","0,0","0,099","1,06","0,61","204,256","-229,905","386,061","18,40",96787,"386,73",,,,,,,,,,,,,,"0,102","-0,03222075235589245","0,025942520241189492","0,013147431501107077"
1900-01-01 05:11:24.119,COM12,,"-0,02","0,008","1,008","0,0","0,0","0,0","0,115","1,055","0,61","204,256","-229,918","386,061","18,39",96787,"386,73",,,,,,,,,,,,,,"0,1","-0,0333762004249259","0,026651348104279708","0,013624724560212725"
1900-01-01 05:11:24.218,COM12,,"-0,02","0,009","1,008","0,0","0,0","0,0","0,132","1,049","0,61","204,256","-229,918","386,061","18,39",96787,"386,73",,,,,,,,,,,,,,"0,099","-0,034551213856535305","0,02736877905216584","0,014110243813108072"
1900-01-01 05:11:24.318,COM12,,"-0,02","0,009","1,008","0,0","0,0","0,0","0,143","1,044","0,61","204,256","-229,931","386,048","18,39",96787,"386,73",,,,,,,,,,,,,,"0,1","-0,03574579332157612","0,028094811566848416","0,014603989251596228"
1900-01-01 05:11:24.418,COM12,,"-0,019","0,009","1,008","0,0","0,0","0,0","0,154","1,038","0,61","204,269","-229,931","386,048","18,40",96787,"386,73",,,,,,,,,,,,,,"0,1","-0,03695895885118456","0,02882945457078677","0,015105942755914044"
1900-01-01 05:11:24.518,COM12,,"-0,02","0,009","1,007","0,0","0,0","0,0","0,17","1,038","0,61","204,256","-229,931","386,035","18,39",96787,"386,73",,,,,,,,,,,,,,"0,1","-0,03819170896206999","0,029572698145046983","0,015615143721604222"
1900-01-01 05:11:24.618,COM12,,"-0,02","0,008","1,009","0,0","0,0","0,0","0,181","1,033","0,61","204,256","-229,931","386,035","18,39",96787,"386,73",,,,,,,,,,,,,,"0,1","-0,03944399841861948","0,030323554198524633","0,016133550711201847"
1900-01-01 05:11:24.718,COM12,,"-0,02","0,009","1,008","0,0","0,0","0,0","0,187","1,027","0,61","204,269","-229,944","386,035","18,39",96787,"386,73",,,,,,,,,,,,,,"0,1","-0,040715856162785516","0,03108300574812422","0,016660184869885727"
1900-01-01 05:11:24.818,COM12,,"-0,02","0,009","1,008","0,0","0,0","0,0","0,198","1,027","0,61","204,256","-229,944","386,048","18,37",96787,"386,73",,,,,,,,,,,,,,"0,1","-0,042007282148178025","0,03185105128185967","0,017195047887358966"
1900-01-01 05:11:24.918,COM12,,"-0,021","0,009","1,008","0,0","0,0","0,0","0,209","1,022","0,61","204,269","-229,944","386,035","18,39",96787,"386,73",,,,,,,,,,,,,,"0,1","-0,04331925783489947","0,03262767883740848","0,017738157250864625"
1900-01-01 05:11:25.018,COM12,,"-0,019","0,008","1,008","0,0","0,0","0,0","0,22","1,022","0,61","204,256","-229,944","386,061","18,39",96787,"386,73",,,,,,,,,,,,,,"0,1","-0,04464981122323187","0,03341192684897895","0,01828947588850851"
1900-01-01 05:11:25.117,COM12,,"-0,025","-0,018","1,009","0,0","0,0","0,0","0,22","1,016","0,61","204,126","-230,126","385,814","18,39",96787,"386,73",,,,,,,,,,,,,,"0,099","-0,04600454067383355","0,03417822468678814","0,018849989149858207"
1900-01-01 05:11:25.217,COM12,,"-0,016","0,071","1,007","0,122","-0,061","0,0","0,104","1,011","0,604","199,784","-233,948","378,105","18,35",96787,"386,73",,,,,,,,,,,,,,"0,1","-0,04737557352139798","0,03501399294156175","0,01941777168354177"
1900-01-01 05:11:25.318,COM12,,"-0,005","-0,098","1,009","0,305","0,183","0,061","-0,066","1,005","0,599","185,029","-240,240","352,859","18,37",96787,"386,73",,,,,,,,,,,,,,"0,101","-0,04875034860347539","0,035753589052216","0,01999457861118462"
1900-01-01 05:11:25.417,COM12,,"-0,02","-0,03","1,01","-0,244","1,038","0,549","-0,253","1,0","0,599","159,120","-251,485","298,909","18,39",96789,"386,56",,,,,,,,,,,,,,"0,099","-0,05014425894522108","0,03646359710421409","0,02058166629864314"
1900-01-01 05:11:25.518,COM12,,"-0,018","-0,013","1,006","0,244","0,061","0,0","-0,319","1,027","0,632","131,300","-283,829","220,909","18,39",96789,"386,56",,,,,,,,,,,,,,"0,101","-0,05155557630846548","0,03716069233512035","0,021175026435622687"
1900-01-01 05:11:25.618,COM12,,"-0,018","0,057","1,007","0,122","0,061","-0,244","-0,28","1,044","0,621","90,623","-300,118","87,035","18,42",96790,"386,48",,,,,,,,,,,,,,"0,1","-0,0529850339732891","0,03791354412188172","0,021775300867923623"
1900-01-01 05:11:25.717,COM12,,"-0,019","-0,036","1,008","0,183","0,122","0,427","-0,165","1,044","0,632","38,584","-289,848","-90,467","18,39",96788,"386,65",,,,,,,,,,,,,,"0,099","-0,05443259228062434","0,03863090084158127","0,022383863257508733"
1900-01-01 05:11:25.818,COM12,,"-0,019","-0,001","1,008","0,061","0,0","0,488","-0,148","1,055","0,67","-26,104","-268,450","-270,257","18,37",96789,"386,56",,,,,,,,,,,,,,"0,101","-0,05589862938487752","0,03934708067544223","0,023000618008791683"
1900-01-01 05:11:25.918,COM12,,"-0,021","0,017","1,01","0,366","0,061","0,122","-0,137","1,06","0,703","-118,144","-131,820","74,477","18,39",96788,"386,65",,,,,,,,,,,,,,"0,1","-0,05738528658893309","0,04007970916105957","0,023627522290582806"
1900-01-01 05:11:26.018,COM12,,"-0,027","0,027","1,006","0,549","0,183","0,366","-0,115","1,066","0,709","-187,434","98,046","348,036","18,39",96789,"386,56",,,,,,,,,,,,,,"0,1","-0,058898643572403694","0,04083850802602314","0,02426075115600158"
1900-01-01 05:11:26.118,COM12,,"-0,023","0,104","1,003","0,977","0,122","0,427","-0,038","1,088","0,72","-186,901","236,340","391,911","18,39",96791,"386,39",,,,,,,,,,,,,,"0,1","-0,06043578517609278","0,0416990419745078","0,024897283264677963"
1900-01-01 05:11:26.217,COM12,,"-0,021","0,037","1,006","0,244","0,0","0,0","0,192","1,099","0,725","-149,721","285,805","-171,938","18,39",96788,"386,65",,,,,,,,,,,,,,"0,099","-0,061993866149406","0,042595590926168124","0,025540216994399092"
1900-01-01 05:11:26.317,COM12,,"-0,018","0,045","1,008","0,122","-0,061","-0,122","0,406","1,104","0,725","-104,624","278,811","-309,621","18,35",96788,"386,65",,,,,,,,,,,,,,"0,1","-0,0635700010737723","0,0435360032282643","0,026191650043676257"
1900-01-01 05:11:26.418,COM12,,"-0,019","-0,009","1,007","0,305","0,0","0,0","0,538","1,11","0,72","-63,193","249,574","-243,100","18,37",96787,"386,73",,,,,,,,,,,,,,"0,101","-0,06516452687323662","0,04446729061934889","0,026850226688907776"
1900-01-01 05:11:26.517,COM12,,"-0,02","0,008","1,008","0,061","-0,061","-0,061","0,593","1,11","0,725","-25,792","215,696","-148,941","18,37",96787,"386,73",,,,,,,,,,,,,,"0,099","-0,0667786121065223","0,04540609747691247","0,02751711072725984"
1900-01-01 05:11:26.617,COM12,,"-0,021","0,081","1,009","0,061","0,244","0,427","0,648","1,115","0,725","5,057","180,349","-63,791","18,37",96787,"386,73",,,,,,,,,,,,,,"0,1","-0,06841410763985366","0,046423995821917065","0,02819412090156405"
1900-01-01 05:11:26.717,COM12,,"-0,02","0,042","1,008","0,061","0,0","-0,061","0,813","1,121","0,725","25,818","153,270","-8,333","18,39",96788,"386,65",,,,,,,,,,,,,,"0,1","-0,07006957278127199","0,047482731251292785","0,028879945132875035"
1900-01-01 05:11:26.817,COM12,,"-0,023","0,019","1,009","0,122","0,061","0,0","0,917","1,121","0,725","38,948","130,871","25,194","18,39",96787,"386,73",,,,,,,,,,,,,,"0,1","-0,07174765029603936","0,04855967733108763","0,029575335205175485"
1900-01-01 05:11:26.917,COM12,,"-0,021","0,049","1,007","0,0","0,122","0,061","0,934","1,126","0,725","51,350","102,596","54,431","18,40",96787,"386,73",,,,,,,,,,,,,,"0,1","-0,07344677960585229","0,04968431153069794","0,030278778277216797"
1900-01-01 05:11:27.017,COM12,,"-0,038","0,057","1,008","-0,122","0,0","-0,305","0,972","1,126","0,72","61,672","72,371","80,015","18,40",96787,"386,73",,,,,,,,,,,,,,"0,1","-0,07518370482895995","0,05086425097402855","0,030991747640889963"
1900-01-01 05:11:27.117,COM12,,"-0,017","0,109","1,011","0,0","0,061","-0,793","1,027","1,126","0,709","68,185","51,558","94,900","18,42",96787,"386,73",,,,,,,,,,,,,,"0,1","-0,07693837343136237","0,05215069742357824","0,03171774808926287"
1900-01-01 05:11:27.217,COM12,,"-0,024","0,017","1,008","0,122","0,061","-1,77","1,088","1,143","0,538","69,784","46,007","98,540","18,39",96787,"386,73",,,,,,,,,,,,,,"0,1","-0,07871657264485024","0,053453448620922536","0,032452379812761695"
1900-01-01 05:11:27.317,COM12,,"-0,018","0,016","1,007","0,122","0,061","-0,122","1,099","1,137","0,505","70,005","45,162","99,125","18,40",96787,"386,73",,,,,,,,,,,,,,"0,1","-0,08051242064526516","0,0547716062675017","0,03319452730042506"
1900-01-01 05:11:27.418,COM12,,"-0,026","0,018","1,009","0,0","0,0","0,0","1,11","1,137","0,456","70,057","44,928","99,320","18,39",96787,"386,73",,,,,,,,,,,,,,"0,101","-0,08233372601804807","0,05610704550743564","0,03394634851354647"
1900-01-01 05:11:27.518,COM12,,"-0,024","0,021","1,011","-0,061","0,0","-0,488","1,093","1,132","0,445","70,070","44,837","99,372","18,39",96787,"386,73",,,,,,,,,,,,,,"0,1","-0,0841785075552738","0,05746269443623663","0,03470981468252658"
1900-01-01 05:11:27.618,COM12,,"-0,021","0,014","1,008","0,0","0,061","0,061","1,066","1,132","0,445","69,940","45,162","99,216","18,39",96787,"386,73",,,,,,,,,,,,,,"0,1","-0,08604383090524838","0,05883176984695325","0,03548178841128378"
1900-01-01 05:11:27.718,COM12,,"-0,021","0,017","1,008","0,0","0,0","0,061","1,049","1,132","0,45","69,875","45,370","99,073","18,37",96787,"386,73",,,,,,,,,,,,,,"0,1","-0,08792971938385595","0,060217214773953046","0,03626231953771567"
1900-01-01 05:11:27.818,COM12,,"-0,021","0,017","1,008","0,061","0,0","0,0","1,038","1,126","0,45","69,862","45,461","99,047","18,39",96787,"386,73",,,,,,,,,,,,,,"0,1","-0,0898361739617415","0,061619030774427416","0,037051402748558906"
1900-01-01 05:11:27.918,COM12,,"-0,022","0,017","1,007","0,061","0,0","0,0","1,027","1,126","0,456","69,849","45,500","99,034","18,39",96787,"386,73",,,,,,,,,,,,,,"0,1","-0,09176419662149204","0,06303722688139225","0,037848073495103905"
1900-01-01 05:11:28.018,COM12,,"-0,021","0,017","1,008","0,0","0,0","0,0","1,016","1,121","0,456","69,836","45,526","99,008","18,39",96787,"386,73",,,,,,,,,,,,,,"0,1","-0,09371278799008034","0,06447179502874384","0,03865328819531935"
1900-01-01 05:11:28.118,COM12,,"-0,021","0,017","1,008","0,061","0,0","0,0","1,011","1,121","0,456","69,836","45,539","98,995","18,37",96787,"386,73",,,,,,,,,,,,,,"0,1","-0,09568194810139083","0,06592273592673713","0,03946704540648023"
1900-01-01 05:11:28.217,COM12,,"-0,021","0,016","1,008","0,061","0,0","0,0","1,005","1,115","0,456","69,823","45,552","98,995","18,39",96787,"386,73",,,,,,,,,,,,,,"0,099","-0,09767167041894262","0,06738906959970256","0,04028932405379629"
1900-01-01 05:11:28.318,COM12,,"-0,022","0,017","1,008","0,061","0,0","0,0","0,994","1,115","0,456","69,823","45,552","98,995","18,40",96787,"386,73",,,,,,,,,,,,,,"0,101","-0,09968294327152774","0,0688717706241947","0,041120157255500465"
1900-01-01 05:11:28.418,COM12,,"-0,021","0,016","1,008","0,061","0,0","0,0","0,989","1,115","0,456","69,836","45,565","98,995","18,39",96787,"386,73",,,,,,,,,,,,,,"0,1","-0,10171477843293533","0,07036986669042464","0,04195950754982946"
1900-01-01 05:11:28.517,COM12,,"-0,022","0,017","1,008","0,061","0,0","0,0","0,983","1,11","0,456","69,836","45,578","99,008","18,37",96787,"386,73",,,,,,,,,,,,,,"0,099","-0,10376816494973536","0,07188433166342098","0,042807407354613566"
1900-01-01 05:11:28.616,COM12,,"-0,021","0,017","1,008","0,0","0,0","0,0","0,972","1,11","0,456","69,836","45,565","98,995","18,42",96787,"386,73",,,,,,,,,,,,,,"0,099","-0,10584212211101837","0,07341517490969299","0,04366383449098862"
1900-01-01 05:11:28.719,COM12,,"-0,021","0,017","1,009","0,0","0,0","0,0","0,967","1,11","0,456","69,836","45,552","99,008","18,39",96787,"386,73",,,,,,,,,,,,,,"0,103","-0,10793663081806402","0,07496238073425826","0,04452976819190421"
1900-01-01 05:11:28.816,COM12,,"-0,021","0,017","1,008","0,0","0,0","0,0","0,956","1,104","0,456","69,836","45,552","99,008","18,39",96787,"386,73",,,,,,,,,,,,,,"0,097","-0,11005171116949888","0,07652596709382964","0,04540422246522063"
1900-01-01 05:11:28.916,COM12,,"-0,021","0,016","1,006","0,0","0,0","0,0","0,95","1,104","0,456","69,849","45,539","99,008","18,39",96787,"386,73",,,,,,,,,,,,,,"0,1","-0,11218739376734019","0,07810498623016043","0,04628521795077197"
1900-01-01 05:11:29.018,COM12,,"-0,025","0,019","1,009","0,0","0,0","0,0","0,939","1,104","0,456","69,823","45,617","98,956","18,39",96787,"386,73",,,,,,,,,,,,,,"0,102","-0,11434756723791913","0,07970230284060635","0,04717581753860075"
1900-01-01 05:11:29.117,COM12,,"-0,019","0,038","1,007","-0,061","0,0","0,061","0,945","1,104","0,472","69,160","47,814","97,409","18,37",96787,"386,73",,,,,,,,,,,,,,"0,099","-0,11652653760143254","0,081336625535496","0,04807425573754074"
1900-01-01 05:11:29.217,COM12,,"-0,023","0,073","1,01","-0,305","-0,061","0,305","0,994","1,099","0,478","65,403","59,735","88,816","18,40",96787,"386,73",,,,,,,,,,,,,,"0,1","-0,11872845000894572","0,0830421913563892","0,048984175506598004"
1900-01-01 05:11:29.317,COM12,,"-0,022","0,057","1,008","0,122","0,0","-0,122","1,088","1,099","0,489","55,575","89,427","64,077","18,39",96786,"386,82",,,,,,,,,,,,,,"0,1","-0,12095224467380544","0,08480333034652436","0,04990341591891749"
1900-01-01 05:11:29.418,COM12,,"-0,021","0,055","1,007","0,122","0,0","0,122","1,241","1,099","0,489","35,464","134,706","12,324","18,42",96787,"386,73",,,,,,,,,,,,,,"0,101","-0,12319694081832462","0,0866180865245266","0,050831083918571045"
1900-01-01 05:11:29.517,COM12,,"-0,027","-0,021","1,009","0,0","0,0","0,122","1,395","1,104","0,5","2,756","179,868","-76,700","18,42",96788,"386,65",,,,,,,,,,,,,,"0,099","-0,12546777604906204","0,08841180396208365","0,05176758555751739"
1900-01-01 05:11:29.617,COM12,,"-0,028","-0,001","1,012","-0,366","-0,122","-0,427","1,401","1,104","0,483","-39,741","223,457","-194,311","18,39",96788,"386,65",,,,,,,,,,,,,,"0,1","-0,12776583623559767","0,09020402331663474","0,052716358744780575"
1900-01-01 05:11:29.717,COM12,,"-0,023","0,012","1,009","-0,427","-0,244","1,404","1,351","1,093","0,549","-87,061","263,757","-309,738","18,42",96786,"386,82",,,,,,,,,,,,,,"0,1","-0,13008639139587552","0,09200758821606378","0,05367466476802049"
1900-01-01 05:11:29.817,COM12,,"-0,027","0,074","1,006","0,244","0,0","0,0","1,313","1,093","0,615","-134,056","285,311","-393,146","18,40",96782,"387,16",,,,,,,,,,,,,,"0,1","-0,13243406078191455","0,09388330630621115","0,0546410225507908"
1900-01-01 05:11:29.918,COM12,,"-0,017","0,02","1,009","-0,549","-0,366","0,0","1,313","1,088","0,604","-175,487","266,253","304,226","18,40",96780,"387,33",,,,,,,,,,,,,,"0,101","-0,13479843174571615","0,09577826194334418","0,055616971582500375"
1900-01-01 05:11:30.018,COM12,,"-0,022","0,025","1,004","0,0","0,0","-0,305","1,324","1,077","0,599","-198,302","196,378","375,856","18,42",96781,"387,25",,,,,,,,,,,,,,"0,1","-0,13718455071088398","0,09769741932616105","0,05659781510779251"
1900-01-01 05:11:30.116,COM12,,"-0,021","0,023","1,008","-0,61","-0,183","-0,122","1,263","1,06","0,582","-176,631","41,184","391,417","18,40",96786,"386,82",,,,,,,,,,,,,,"0,098","-0,13959133912146982","0,09963875243512288","0,05758738173288095"
1900-01-01 05:11:30.217,COM12,,"-0,023","-0,011","1,008","-0,427","-0,122","0,0","1,203","1,055","0,577","-104,910","-153,725","-200,772","18,35",96787,"386,73",,,,,,,,,,,,,,"0,101","-0,14202043497002148","0,10156890694442874","0,05858498221601717"
1900-01-01 05:11:30.317,COM12,,"-0,018","0,043","1,008","-0,427","-0,061","0,0","1,06","1,033","0,566","-29,887","-250,939","-242,593","18,42",96787,"386,73",,,,,,,,,,,,,,"0,1","-0,14446744475981738","0,10354091713254718","0,05959152665897202"
1900-01-01 05:11:30.416,COM12,,"-0,022","-0,023","1,007","-0,488","-0,061","0,061","0,95","1,027","0,566","27,599","-274,898","-103,402","18,39",96786,"386,82",,,,,,,,,,,,,,"0,099","-0,14693569169582887","0,10549004266242935","0,06060494885010684"
1900-01-01 05:11:30.516,COM12,,"-0,016","-0,028","1,01","-0,427","-0,122","0,0","0,857","1,016","0,571","76,700","-291,590","57,447","18,40",96786,"386,82",,,,,,,,,,,,,,"0,1","-0,14941918958171166","0,10741140317295374","0,06162804594527656"
1900-01-01 05:11:30.616,COM12,,"-0,021","-0,029","1,006","-0,244","0,0","-0,122","0,775","1,016","0,571","114,855","-284,388","181,415","18,40",96787,"386,73",,,,,,,,,,,,,,"0,1","-0,15192290239442446","0,10930403479075773","0,06265700812819652"
1900-01-01 05:11:30.716,COM12,,"-0,023","0,021","1,005","-0,366","0,0","-0,061","0,709","1,005","0,566","141,167","-256,373","259,909","18,42",96787,"386,73",,,,,,,,,,,,,,"0,1","-0,1544492860331189","0,11121698217621362","0,06369152480740559"
1900-01-01 05:11:30.816,COM12,,"-0,021","-0,081","1,01","-0,305","0,0","0,061","0,604","0,989","0,544","167,102","-239,603","321,685","18,42",96788,"386,65",,,,,,,,,,,,,,"0,1","-0,1569953564456314","0,11305017905414239","0,0647353675419332"
1900-01-01 05:11:30.916,COM12,,"-0,021","0,024","1,01","0,0","0,061","0,183","0,39","0,989","0,555","186,706","-236,249","357,370","18,40",96786,"386,82",,,,,,,,,,,,,,"0,1","-0,1595620791488122","0,11490665365779396","0,06578953440413951"
1900-01-01 05:11:31.016,COM12,,"-0,015","0,018","1,008","-0,305","-0,061","-0,061","0,236","0,978","0,555","198,172","-232,739","376,571","18,40",96786,"386,82",,,,,,,,,,,,,,"0,1","-0,1621435495589645","0,11678061175367221","0,06685187194144904"
1900-01-01 05:11:31.115,COM12,,"-0,021","0,002","1,008","-0,061","0,0","0,977","0,137","0,978","0,615","203,619","-230,269","385,138","18,39",96786,"386,82",,,,,,,,,,,,,,"0,099","-0,1647455036137356","0,11865629331527253","0,06792241263169115"
1900-01-01 05:11:31.217,COM12,,"-0,019","0,008","1,008","0,0","0,0","0,0","0,082","0,972","0,637","204,399","-230,009","386,347","18,40",96787,"386,73",,,,,,,,,,,,,,"0,102","-0,1673660466460567","0,12053960544529985","0,06900112760282683"
1900-01-01 05:11:31.317,COM12,,"-0,02","0,01","1,008","-0,061","-0,183","-0,061","0,066","0,95","0,626","204,477","-230,087","386,438","18,40",96787,"386,73",,,,,,,,,,,,,,"0,1","-0,17000618259307645","0,12243250503755977","0,07008802608577278"
1900-01-01 05:11:31.417,COM12,,"-0,02","0,009","1,008","0,0","0,0","0,0","0,066","0,945","0,626","204,464","-230,191","386,386","18,40",96787,"386,73",,,,,,,,,,,,,,"0,1","-0,17266590146950891","0,12433401114324939","0,07118310525005962"
1900-01-01 05:11:31.517,COM12,,"-0,02","0,009","1,008","-0,061","0,0","0,0","0,077","0,945","0,626","204,464","-230,243","386,360","18,40",96787,"386,73",,,,,,,,,,,,,,"0,1","-0,17534520323094635","0,1262441222539419","0,07228636678862183"
1900-01-01 05:11:31.617,COM12,,"-0,02","0,009","1,008","0,0","0,0","0,0","0,088","0,945","0,626","204,451","-230,256","386,347","18,39",96787,"386,73",,,,,,,,,,,,,,"0,1","-0,17804408783298226","0,12816283686088548","0,07339781239410417"
1900-01-01 05:11:31.717,COM12,,"-0,02","0,009","1,008","-0,061","0,0","0,0","0,099","0,945","0,626","204,464","-230,269","386,360","18,39",96787,"386,73",,,,,,,,,,,,,,"0,1","-0,18076255523121132","0,13009015345500324","0,07451744375886175"
1900-01-01 05:11:31.816,COM12,,"-0,02","0,008","1,008","0,0","0,0","0,0","0,11","0,95","0,626","204,451","-230,269","386,347","18,40",96787,"386,73",,,,,,,,,,,,,,"0,099","-0,18350059397999374","0,13202508959471856","0,07564526239241941"
1900-01-01 05:11:31.917,COM12,,"-0,02","0,009","1,008","-0,061","0,0","0,0","0,121","0,95","0,626","204,464","-230,282","386,347","18,42",96787,"386,73",,,,,,,,,,,,,,"0,101","-0,18625821472149334","0,13396862471028814","0,07678127186967489"
1900-01-01 05:11:32.017,COM12,,"-0,02","0,009","1,009","0,0","0,0","0,0","0,132","0,95","0,626","204,464","-230,308","386,334","18,42",96787,"386,73",,,,,,,,,,,,,,"0,1","-0,18903540112263179","0,13592075520943903","0,07792645474466442"
1900-01-01 05:11:32.117,COM12,,"-0,019","0,009","1,008","-0,061","0,0","0,0","0,143","0,95","0,626","204,451","-230,295","386,334","18,39",96787,"386,73",,,,,,,,,,,,,,"0,1","-0,19183118862077753","0,13788149238050465","0,07907981558117727"
1900-01-01 05:11:32.217,COM12,,"-0,02","0,009","1,007","0,0","0,0","0,0","0,154","0,95","0,626","204,451","-230,308","386,334","18,39",96787,"386,73",,,,,,,,,,,,,,"0,1","-0,19464657427062557","0,13985082645517682","0,08024039147335402"
1900-01-01 05:11:32.317,COM12,,"-0,02","0,009","1,009","-0,061","0,0","0,0","0,165","0,956","0,626","204,451","-230,321","386,334","18,40",96787,"386,73",,,,,,,,,,,,,,"0,1","-0,19748152447910722","0,14182875082685428","0,08141014787340524"
1900-01-01 05:11:32.417,COM12,,"-0,02","0,009","1,008","0,0","0,0","0,0","0,176","0,956","0,626","204,438","-230,334","386,321","18,42",96787,"386,73",,,,,,,,,,,,,,"0,1","-0,20033605559888856","0,14381526663027103","0,08258810561227047"
1900-01-01 05:11:32.517,COM12,,"-0,02","0,009","1,008","0,0","0,0","0,0","0,187","0,956","0,626","204,438","-230,360","386,308","18,40",96787,"386,73",,,,,,,,,,,,,,"0,1","-0,2032101675852498","0,14581037235375563","0,08377426637997934"
1900-01-01 05:11:32.617,COM12,,"-0,011","0,007","1,007","0,0","0,0","0,0","0,198","0,956","0,626","204,451","-230,360","386,295","18,40",96787,"386,73",,,,,,,,,,,,,,"0,1","-0,20609502823019363","0,14781220427215244","0,08496749692135343"
1900-01-01 05:11:32.717,COM12,,"-0,015","-0,182","1,008","0,122","0,183","-0,427","0,159","0,956","0,615","203,372","-231,400","384,397","18,40",96787,"386,73",,,,,,,,,,,,,,"0,1","-0,20899256169375385","0,14963532677990107","0,08616832445602055"
1900-01-01 05:11:32.816,COM12,,"-0,016","-0,044","1,009","-0,061","-0,122","0,0","0,022","0,939","0,599","193,986","-237,458","368,160","18,42",96787,"386,73",,,,,,,,,,,,,,"0,099","-0,21190519249633327","0,15141512170038116","0,08737822045742834"
1900-01-01 05:11:32.916,COM12,,"-0,029","-0,06","1,01","0,122","0,061","0,183","-0,148","0,934","0,599","175,149","-242,671","334,308","18,39",96789,"386,56",,,,,,,,,,,,,,"0,1","-0,2148454895112163","0,15313578969435432","0,08859854088014468"
1900-01-01 05:11:33.016,COM12,,"-0,021","-0,038","1,011","0,183","0,793","0,916","-0,308","0,934","0,615","149,396","-261,781","273,390","18,39",96788,"386,65",,,,,,,,,,,,,,"0,1","-0,2178058049508091","0,15481902120919416","0,08983018688753645"
1900-01-01 05:11:33.115,COM12,,"-0,021","-0,024","1,01","0,732","0,0","0,0","-0,368","0,956","0,621","116,857","-294,268","174,720","18,42",96790,"386,48",,,,,,,,,,,,,,"0,099","-0,22078629663905366","0,15647855214904946","0,09107213624257561"
1900-01-01 05:11:33.215,COM12,,"-0,019","0,044","1,01","0,61","0,0","-0,122","-0,374","0,967","0,61","60,463","-293,384","-18,577","18,42",96790,"386,48",,,,,,,,,,,,,,"0,1","-0,22378572303457528","0,1581811110577907","0,09232392684097533"
1900-01-01 05:11:33.315,COM12,,"-0,021","-0,08","1,011","0,732","0,183","0,0","-0,308","0,972","0,648","-10,998","-275,639","-234,078","18,42",96788,"386,65",,,,,,,,,,,,,,"0,1","-0,2268046690502426","0,15980502332163665","0,09358727801713221"
1900-01-01 05:11:33.415,COM12,,"-0,022","0,027","1,007","0,793","0,0","0,488","-0,297","0,978","0,692","-117,507","-127,257","78,676","18,40",96788,"386,65",,,,,,,,,,,,,,"0,1","-0,229845397811457","0,1614551966621764","0,0948577261947202"
1900-01-01 05:11:33.515,COM12,,"-0,022","0,014","1,006","0,61","0,183","0,244","-0,258","0,989","0,703","-189,150","125,307","348,660","18,39",96790,"386,48",,,,,,,,,,,,,,"0,1","-0,2329077720451429","0,16311886580757168","0,09613437011671754"
1900-01-01 05:11:33.615,COM12,,"-0,026","0,066","1,006","0,61","0,183","-0,122","-0,132","1,005","0,703","-174,902","256,945","242,008","18,43",96791,"386,39",,,,,,,,,,,,,,"0,1","-0,2359963403773617","0,16484697780746355","0,09741719734320224"
1900-01-01 05:11:33.717,COM12,,"-0,028","0,107","1,006","0,366","-0,061","0,0","0,11","1,016","0,692","-122,538","282,542","-287,040","18,42",96789,"386,56",,,,,,,,,,,,,,"0,102","-0,23911353004258543","0,16667970727295278","0,09870659817585134"
1900-01-01 05:11:33.815,COM12,,"-0,022","0,055","1,005","0,122","0,0","-0,488","0,363","1,027","0,681","-70,629","255,125","-253,890","18,42",96788,"386,65",,,,,,,,,,,,,,"0,098","-0,24225284357833976","0,16856610041910752","0,10000163172579973"
1900-01-01 05:11:33.916,COM12,,"-0,022","-0,029","1,008","0,061","-0,122","0,061","0,533","1,038","0,665","-31,278","220,532","-162,448","18,42",96787,"386,73",,,,,,,,,,,,,,"0,101","-0,2454132657408374","0,17042372586231125","0,10130463801511001"
1900-01-01 05:11:34.017,COM12,,"-0,028","0,036","1,007","0,122","0,061","0,0","0,566","1,038","0,659","3,406","182,221","-67,717","18,39",96788,"386,65",,,,,,,,,,,,,,"0,101","-0,2486014242605677","0,17231628104898242","0,1026153562482585"
1900-01-01 05:11:34.115,COM12,,"-0,028","0,084","1,004","0,061","-0,183","-0,122","0,676","1,038","0,648","32,877","141,037","9,698","18,39",96788,"386,65",,,,,,,,,,,,,,"0,098","-0,25181788718847575","0,17429087334247542","0,10393146721707687"
1900-01-01 05:11:34.215,COM12,,"-0,022","0,067","1,009","0,0","0,0","-3,174","0,846","1,049","0,5","51,298","100,568","55,432","18,42",96788,"386,65",,,,,,,,,,,,,,"0,1","-0,2550563206676741","0,17633086587492344","0,1052577701491326"
1900-01-01 05:11:34.315,COM12,,"-0,019","0,01","1,007","0,061","0,0","-0,244","0,983","1,06","0,291","59,566","77,584","76,089","18,40",96787,"386,73",,,,,,,,,,,,,,"0,1","-0,2583133088063845","0,17838045504189554","0,10659145097561722"
1900-01-01 05:11:34.416,COM12,,"-0,025","0,026","1,007","0,183","0,0","-0,549","1,022","1,06","0,242","65,429","58,942","90,818","18,42",96787,"386,73",,,,,,,,,,,,,,"0,101","-0,2615947892940505","0,18045532044688595","0,10793290508868311"
1900-01-01 05:11:34.515,COM12,,"-0,013","0,016","1,007","0,122","0,0","-2,563","1,071","1,077","0,077","69,342","46,436","98,891","18,42",96787,"386,73",,,,,,,,,,,,,,"0,099","-0,2648889068704832","0,1825457337870546","0,1092817568238802"
1900-01-01 05:11:34.615,COM12,,"-0,021","0,021","1,013","-0,366","-0,061","-0,916","1,099","1,077","-0,132","69,771","44,772","100,087","18,42",96787,"386,73",,,,,,,,,,,,,,"0,1","-0,2682033277752206","0,1846565465647717","0,11064413923601753"
1900-01-01 05:11:34.715,COM12,,"-0,021","0,014","1,006","0,0","0,0","0,0","1,06","1,06","-0,137","69,706","44,837","100,087","18,43",96787,"386,73",,,,,,,,,,,,,,"0,1","-0,2715381999533855","0,18678103104462604","0,11201304076840707"
1900-01-01 05:11:34.815,COM12,,"-0,021","0,017","1,008","0,0","0,0","0,0","1,049","1,06","-0,137","69,628","45,032","99,983","18,42",96787,"386,73",,,,,,,,,,,,,,"0,1","-0,2748934792141768","0,18892209489511702","0,11339047401117465"
1900-01-01 05:11:34.915,COM12,,"-0,022","0,017","1,008","0,0","0,0","0,0","1,038","1,06","-0,137","69,602","45,110","99,944","18,40",96787,"386,73",,,,,,,,,,,,,,"0,1","-0,2782701464418843","0,19107974202641376","0,11477645393902514"
1900-01-01 05:11:35.015,COM12,,"-0,022","0,016","1,008","0,061","0,0","0,0","1,027","1,06","-0,137","69,589","45,149","99,905","18,40",96787,"386,73",,,,,,,,,,,,,,"0,1","-0,28166820436205275","0,1932529931639792","0,11617095979840282"
1900-01-01 05:11:35.115,COM12,,"-0,021","0,017","1,008","0,0","0,0","0,0","1,016","1,06","-0,137","69,589","45,175","99,892","18,42",96787,"386,73",,,,,,,,,,,,,,"0,1","-0,2850866695297832","0,1954428283650611","0,11757398784753591"
1900-01-01 05:11:35.215,COM12,,"-0,021","0,017","1,008","0,061","0,0","0,0","1,005","1,06","-0,137","69,576","45,188","99,892","18,42",96787,"386,73",,,,,,,,,,,,,,"0,1","-0,28852554200006814","0,1976492491927339","0,11898553491228321"
1900-01-01 05:11:35.315,COM12,,"-0,022","0,017","1,008","0,0","0,0","0,0","0,994","1,06","-0,137","69,576","45,201","99,879","18,42",96787,"386,73",,,,,,,,,,,,,,"0,1","-0,29198580265722557","0,19987225955472906","0,12040561596614908"
1900-01-01 05:11:35.416,COM12,,"-0,021","0,016","1,008","0,0","0,0","0,0","0,983","1,066","-0,137","69,576","45,188","99,892","18,39",96787,"386,73",,,,,,,,,,,,,,"0,101","-0,2954664724938152","0,20211087781343062","0,12183419500073431"
1900-01-01 05:11:35.514,COM12,,"-0,022","0,017","1,007","0,061","0,0","0,0","0,978","1,066","-0,137","69,576","45,188","99,905","18,40",96787,"386,73",,,,,,,,,,,,,,"0,098","-0,29896854791189054","0,20436610466368144","0,12327032496307763"
1900-01-01 05:11:35.616,COM12,,"-0,021","0,017","1,009","0,0","0,0","0,0","0,972","1,066","-0,137","69,576","45,201","99,892","18,42",96787,"386,73",,,,,,,,,,,,,,"0,102","-0,3024910116981306","0,20663790513889826","0,12471594724705828"
1900-01-01 05:11:35.716,COM12,,"-0,022","0,017","1,008","0,0","0,0","0,0","0,961","1,066","-0,137","69,576","45,201","99,892","18,40",96787,"386,73",,,,,,,,,,,,,,"0,1","-0,30603486294348914","0,20892629983003985","0,1261700962389205"
1900-01-01 05:11:35.816,COM12,,"-0,022","0,017","1,008","0,0","0,0","0,0","0,956","1,066","-0,137","69,576","45,201","99,905","18,42",96787,"386,73",,,,,,,,,,,,,,"0,1","-0,30960010167312896","0,21123128944628505","0,1276327704952316"
1900-01-01 05:11:35.916,COM12,,"-0,022","0,017","1,008","0,0","0,0","0,0","0,945","1,071","-0,137","69,576","45,214","99,892","18,40",96787,"386,73",,,,,,,,,,,,,,"0,1","-0,3131867271986414","0,21355287554560537","0,1291039687100621"
1900-01-01 05:11:36.016,COM12,,"-0,021","0,017","1,008","0,0","0,0","0,0","0,939","1,071","-0,137","69,576","45,201","99,892","18,40",96787,"386,73",,,,,,,,,,,,,,"0,1","-0,3167937587245626","0,2158910566332587","0,13058367081479924"
1900-01-01 05:11:36.115,COM12,,"-0,021","0,017","1,007","0,0","0,0","0,0","0,934","1,071","-0,137","69,563","45,201","99,892","18,40",96787,"386,73",,,,,,,,,,,,,,"0,099","-0,32042121457171463","0,21824584945260286","0,1320708946674378"
