Time,Device name,Chip Time(),Acceleration X(g),Acceleration Y(g),Acceleration Z(g),Angular velocity X(°/s),Angular velocity Y(°/s),Angular velocity Z(°/s),Angle X(°),Angle Y(°),Angle Z(°),Magnetic field X(ʯt),Magnetic field Y(ʯt),Magnetic field Z(ʯt),Temperature(℃),Pressure(Pa),Height(m),Longitude(),Latitude(),GPS ground speed(km),Angle of course(°),GPS height(m),Number of satellites(),Position location(),Horizontal position(),Vertical position(),Quaternions 0(),Quaternions 1(),Quaternions 2(),Quaternions 3(),Delta_t,Velocity X(m/s),Velocity Y(m/s),Velocity Z(m/s),Position X(m),Position Y(m),Position Z(m)
1900-01-01 09:51:45.800,COM12,,"-0,021","0,017","1,008","0,0","0,0","0,0","0,829","1,066","-3,329","83,161","42,588","76,427","20,28",96759,"389,12",,,,,,,,,,,,,,,"0,0","0,0","0,0","0,0","0,0","0,0"
1900-01-01 09:51:45.900,COM12,,"-0,021","0,017","1,008","0,0","0,0","0,0","0,829","1,066","-3,329","83,174","42,588","76,427","20,28",96759,"389,12",,,,,,,,,,,,,,"0,1","0,0","0,0","0,0","0,0","0,0","0,0"
1900-01-01 09:51:46.000,COM12,,"-0,021","0,018","1,008","0,0","0,0","0,0","0,829","1,066","-3,329","83,161","42,588","76,427","20,28",96759,"389,12",,,,,,,,,,,,,,"0,1","0,0","0,0","0,0","0,0","0,0","0,0"
1900-01-01 09:51:46.099,COM12,,"-0,021","0,017","1,008","0,0","0,0","0,0","0,829","1,066","-3,329","83,161","42,588","76,427","20,29",96759,"389,12",,,,,,,,,,,,,,"0,099","0,0","0,0","0,0","0,0","0,0","0,0"
1900-01-01 09:51:46.199,COM12,,"-0,021","0,017","1,009","0,0","0,0","0,0","0,829","1,066","-3,329","83,174","42,588","76,427","20,29",96760,"389,04",,,,,,,,,,,,,,"0,1","0,0","0,0","0,0","0,0","0,0","0,0"
1900-01-01 09:51:46.299,COM12,,"-0,022","0,017","1,008","0,0","0,0","0,0","0,824","1,066","-3,329","83,161","42,575","76,427","20,31",96759,"389,12",,,,,,,,,,,,,,"0,1","0,0","0,0","0,0","0,0","0,0","0,0"
1900-01-01 09:51:46.399,COM12,,"-0,021","0,017","1,008","0,0","0,0","0,0","0,824","1,066","-3,329","83,161","42,575","76,414","20,29",96759,"389,12",,,,,,,,,,,,,,"0,1","0,0","0,0","0,0","0,0","0,0","0,0"
1900-01-01 09:51:46.499,COM12,,"-0,021","0,017","1,008","0,0","0,0","0,0","0,824","1,066","-3,329","83,161","42,588","76,440","20,29",96759,"389,12",,,,,,,,,,,,,,"0,1","0,0","0,0","0,0","0,0","0,0","0,0"
1900-01-01 09:51:46.599,COM12,,"-0,021","0,017","1,008","0,0","0,0","0,0","0,824","1,066","-3,329","83,161","42,588","76,427","20,29",96759,"389,12",,,,,,,,,,,,,,"0,1","0,0","0,0","0,0","0,0","0,0","0,0"
1900-01-01 09:51:46.699,COM12,,"-0,021","0,017","1,008","0,0","0,0","0,0","0,824","1,066","-3,329","83,174","42,575","76,427","20,28",96759,"389,12",,,,,,,,,,,,,,"0,1","0,0","0,0","0,0","0,0","0,0","0,0"
1900-01-01 09:51:46.799,COM12,,"-0,021","0,017","1,008","0,0","0,0","0,0","0,824","1,066","-3,329","83,174","42,575","76,427","20,29",96759,"389,12",,,,,,,,,,,,,,"0,1","0,0","0,0","0,0","0,0","0,0","0,0"
1900-01-01 09:51:46.899,COM12,,"-0,021","0,018","1,008","0,0","0,0","0,0","0,824","1,066","-3,329","83,161","42,575","76,427","20,26",96759,"389,12",,,,,,,,,,,,,,"0,1","1,2500000000000012e-05","9,359955742323113e-05","-0,8802000010150156","1,2500000000000014e-06","9,359955742323114e-06","-0,08802000010150157"
1900-01-01 09:51:46.998,COM12,,"-0,022","0,017","1,008","0,0","0,0","0,0","0,824","1,066","-3,329","83,161","42,588","76,427","20,34",96759,"389,12",,,,,,,,,,,,,,"0,099","-7,412499999999973e-05","8,726311927812027e-05","-1,7515980009399588","-6,088374999999972e-06","1,799900455085702e-05","-0,26142820219455754"
1900-01-01 09:51:47.098,COM12,,"-0,021","0,017","1,008","0,0","0,0","0,0","0,824","1,066","-3,329","83,161","42,575","76,440","20,26",96759,"389,12",,,,,,,,,,,,,,"0,1","-6,162499999999972e-05","8,086267670730121e-05","-2,6317980008641437","-1,2250874999999946e-05","2,6085272221587142e-05","-0,5246080022809719"
1900-01-01 09:51:47.198,COM12,,"-0,022","0,017","1,008","0,0","0,0","0,0","0,824","1,066","-3,329","83,161","42,575","76,440","20,29",96759,"389,12",,,,,,,,,,,,,,"0,1","-0,00014912499999999946","7,446223413648215e-05","-3,5119980007883287","-2,7163374999999895e-05","3,3531495635235356e-05","-0,8758078023598048"
1900-01-01 09:51:47.298,COM12,,"-0,021","0,017","1,008","0,0","0,0","0,0","0,824","1,066","-3,329","83,174","42,575","76,440","20,26",96759,"389,12",,,,,,,,,,,,,,"0,1","-0,00013662499999999946","6,80617915656631e-05","-4,392198000712513","-4,082587499999984e-05","4,033767479180166e-05","-1,315027602431056"
1900-01-01 09:51:47.398,COM12,,"-0,021","0,017","1,009","0,0","0,0","0,0","0,824","1,066","-3,329","83,174","42,575","76,440","20,31",96759,"389,12",,,,,,,,,,,,,,"0,1","-0,00012412499999999945","6,166243982562651e-05","-5,272298000636704","-5,323837499999978e-05","4,650391877436431e-05","-1,8422574024947265"
1900-01-01 09:51:47.498,COM12,,"-0,021","0,016","1,008","0,0","0,0","0,0","0,824","1,066","-3,329","83,174","42,575","76,427","20,29",96759,"389,12",,,,,,,,,,,,,,"0,1","-0,00011162499999999945","-4,473800273924308e-05","-6,152497999470058","-6,440087499999972e-05","4,2030118500440006e-05","-2,4575072024417324"
1900-01-01 09:51:47.598,COM12,,"-0,021","0,017","1,008","0,0","0,0","0,0","0,824","1,066","-3,329","83,174","42,575","76,440","20,28",96759,"389,12",,,,,,,,,,,,,,"0,1","-9,912499999999944e-05","-5,113844531006214e-05","-7,032697999394243","-7,431337499999967e-05","3,691627396943379e-05","-3,1607770023811566"
1900-01-01 09:51:47.698,COM12,,"-0,021","0,018","1,008","0,0","0,0","0,0","0,824","1,066","-3,329","83,174","42,588","76,440","20,29",96759,"389,12",,,,,,,,,,,,,,"0,1","-8,662499999999944e-05","4,2461112113168994e-05","-7,912898000409259","-8,297587499999962e-05","4,1162385180750695e-05","-3,9520668024220824"
1900-01-01 09:51:47.798,COM12,,"-0,022","0,017","1,008","0,0","0,0","0,0","0,824","1,066","-3,329","83,161","42,575","76,440","20,29",96759,"389,12",,,,,,,,,,,,,,"0,1","-0,00017412499999999918","3,606066954234994e-05","-8,793098000333444","-0,00010038837499999953","4,476845213498569e-05","-4,8313766024554265"
1900-01-01 09:51:47.898,COM12,,"-0,021","0,017","1,008","0,0","0,0","0,0","0,824","1,066","-3,329","83,174","42,575","76,440","20,34",96759,"389,12",,,,,,,,,,,,,,"0,1","-0,00016162499999999917","2,9660226971530885e-05","-9,67329800025763","-0,00011655087499999945","4,773447483213878e-05","-5,79870640248119"
1900-01-01 09:51:47.998,COM12,,"-0,021","0,017","1,008","0,0","0,0","0,0","0,824","1,066","-3,329","83,161","42,575","76,440","20,29",96759,"389,12",,,,,,,,,,,,,,"0,1","-0,00014912499999999917","2,3259784400711833e-05","-10,553498000181815","-0,00013146337499999935","5,006045327220996e-05","-6,854056202499372"
1900-01-01 09:51:48.098,COM12,,"-0,021","0,017","1,009","0,0","0,0","0,0","0,824","1,066","-3,329","83,174","42,575","76,440","20,31",96759,"389,12",,,,,,,,,,,,,,"0,1","-0,00013662499999999916","1,6860432660675256e-05","-11,433598000106006","-0,00014512587499999926","5,1746496538277484e-05","-7,997416002509972"
1900-01-01 09:51:48.198,COM12,,"-0,021","0,017","1,008","0,0","0,0","0,0","0,824","1,066","-3,329","83,174","42,575","76,427","20,29",96759,"389,12",,,,,,,,,,,,,,"0,1","-0,00012412499999999915","1,0459990089856204e-05","-12,313798000030191","-0,0001575383749999992","5,27924955472631e-05","-9,228795802512991"
1900-01-01 09:51:48.298,COM12,,"-0,021","0,017","1,008","0,0","0,0","0,0","0,824","1,066","-3,329","83,174","42,588","76,427","20,31",96759,"389,12",,,,,,,,,,,,,,"0,1","-0,00011162499999999915","4,05954751903715e-06","-13,193997999954377","-0,0001687008749999991","5,319845029916682e-05","-10,548195602508429"
1900-01-01 09:51:48.398,COM12,,"-0,021","0,017","1,008","0,0","0,0","0,0","0,824","1,066","-3,329","83,174","42,575","76,440","20,33",96759,"389,12",,,,,,,,,,,,,,"0,1","-9,912499999999914e-05","-2,3408950517819036e-06","-14,074197999878562","-0,00017861337499999904","5,296436079398863e-05","-11,955615402496285"
1900-01-01 09:51:48.498,COM12,,"-0,022","0,017","1,008","0,0","0,0","0,0","0,824","1,066","-3,329","83,161","42,575","76,440","20,31",96759,"389,12",,,,,,,,,,,,,,"0,1","-0,00018662499999999888","-8,741337622600956e-06","-14,954397999802747","-0,00019727587499999893","5,209022703172853e-05","-13,45105520247656"
1900-01-01 09:51:48.598,COM12,,"-0,021","0,017","1,008","0,0","0,0","0,0","0,824","1,066","-3,329","83,174","42,588","76,440","20,29",96759,"389,12",,,,,,,,,,,,,,"0,1","-0,00017412499999999888","-1,514178019342001e-05","-15,834597999726933","-0,00021468837499999882","5,057604901238653e-05","-15,034515002449254"
1900-01-01 09:51:48.699,COM12,,"-0,021","0,017","1,008","0,0","0,0","0,0","0,824","1,066","-3,329","83,161","42,575","76,440","20,31",96759,"389,12",,,,,,,,,,,,,,"0,101","-0,00016149999999999886","-2,1606227189947254e-05","-16,72359999965036","-0,0002309998749999987","4,839382006620186e-05","-16,72359860241394"
1900-01-01 09:51:48.799,COM12,,"-0,021","0,017","1,008","0,0","0,0","0,0","0,824","1,066","-3,329","83,174","42,575","76,440","20,33",96759,"389,12",,,,,,,,,,,,,,"0,1","-0,00014899999999999885","-2,8006669760766307e-05","-17,603799999574544","-0,00024589987499999856","4,559315309012523e-05","-18,483978602371394"
1900-01-01 09:51:48.899,COM12,,"-0,021","0,017","1,008","0,0","0,0","0,0","0,824","1,066","-3,329","83,161","42,588","76,440","20,31",96759,"389,12",,,,,,,,,,,,,,"0,1","-0,00013649999999999885","-3,440711233158536e-05","-18,483999999498728","-0,00025954987499999843","4,215244185696669e-05","-20,332378602321267"
1900-01-01 09:51:49.000,COM12,,"-0,021","0,017","1,008","0,0","0,0","0,0","0,824","1,066","-3,329","83,174","42,575","76,440","20,28",96759,"389,12",,,,,,,,,,,,,,"0,101","-0,00012387499999999882","-4,087155932811261e-05","-19,373001999422154","-0,00027206124999999833","3,8024414364827315e-05","-22,289051804262904"
1900-01-01 09:51:49.098,COM12,,"-0,021","0,018","1,008","0,0","0,0","0,0","0,824","1,066","-3,329","83,174","42,575","76,440","20,34",96759,"389,12",,,,,,,,,,,,,,"0,098","-0,00011162499999999881","5,08560069466539e-05","-20,23559800041687","-0,0002830004999999982","4,3008303045599396e-05","-24,27214040830376"
1900-01-01 09:51:49.198,COM12,,"-0,021","0,017","1,008","0,0","0,0","0,0","0,824","1,066","-3,329","83,161","42,575","76,440","20,33",96759,"389,12",,,,,,,,,,,,,,"0,1","-9,912499999999879e-05","4,4455564375834844e-05","-21,115798000341055","-0,0002929129999999981","4,745385948318288e-05","-26,383720208337863"
1900-01-01 09:51:49.298,COM12,,"-0,021","0,017","1,009","0,0","0,0","0,0","0,824","1,066","-3,329","83,174","42,575","76,427","20,31",96759,"389,12",,,,,,,,,,,,,,"0,1","-8,662499999999879e-05","3,805621263579827e-05","-21,995898000265246","-0,000301575499999998","5,125948074676271e-05","-28,583310008364386"
1900-01-01 09:51:49.398,COM12,,"-0,021","0,017","1,008","0,0","0,0","0,0","0,824","1,066","-3,329","83,174","42,575","76,440","20,34",96759,"389,12",,,,,,,,,,,,,,"0,1","-7,412499999999878e-05","3,165577006497921e-05","-22,87609800018943","-0,0003089879999999979","5,442505775326063e-05","-30,870919808383327"
1900-01-01 09:51:49.498,COM12,,"-0,021","0,017","1,008","0,0","0,0","0,0","0,824","1,066","-3,329","83,174","42,575","76,440","20,29",96759,"389,12",,,,,,,,,,,,,,"0,1","-6,162499999999877e-05","2,525532749416016e-05","-23,756298000113613","-0,0003151504999999978","5,6950590502676645e-05","-33,24654960839469"
1900-01-01 09:51:49.598,COM12,,"-0,021","0,017","1,008","0,0","0,0","0,0","0,824","1,066","-3,329","83,161","42,575","76,440","20,31",96759,"389,12",,,,,,,,,,,,,,"0,1","-4,912499999999876e-05","1,8854884923341106e-05","-24,636498000037797","-0,00032006299999999766","5,883607899501076e-05","-35,710199408398466"
1900-01-01 09:51:49.698,COM12,,"-0,021","0,017","1,008","0,0","0,0","0,0","0,824","1,066","-3,329","83,174","42,575","76,440","20,33",96759,"389,12",,,,,,,,,,,,,,"0,1","-3,662499999999875e-05","1,2454442352522054e-05","-25,51669799996198","-0,00032372549999999754","6,0081523230262966e-05","-38,261869208394664"
1900-01-01 09:51:49.798,COM12,,"-0,021","0,017","1,009","0,0","0,0","0,0","0,824","1,066","-3,329","83,161","42,588","76,440","20,31",96759,"389,12",,,,,,,,,,,,,,"0,1","-2,4124999999998736e-05","6,055090612485475e-06","-26,39679799988617","-0,0003261379999999974","6,0687032291511516e-05","-40,901549008383284"
1900-01-01 09:51:49.898,COM12,,"-0,021","0,017","1,007","0,0","0,0","0,0","0,824","1,066","-3,329","83,161","42,588","76,440","20,29",96759,"389,12",,,,,,,,,,,,,,"0,1","-1,1624999999998724e-05","-3,464427891160527e-07","-27,27709799981035","-0,0003273004999999973","6,065238801259991e-05","-43,62925880836432"
1900-01-01 09:51:49.998,COM12,,"-0,021","0,017","1,009","0,0","0,0","0,0","0,824","1,066","-3,329","83,161","42,575","76,440","20,31",96759,"389,12",,,,,,,,,,,,,,"0,1","8,750000000012884e-07","-6,745794529152631e-06","-28,157197999734542","-0,00032721299999999715","5,9977808559684645e-05","-46,44497860833778"
1900-01-01 09:51:50.098,COM12,,"-0,021","0,017","1,008","0,0","0,0","0,0","0,824","1,066","-3,329","83,174","42,575","76,440","20,31",96759,"389,12",,,,,,,,,,,,,,"0,1","1,3375000000001301e-05","-1,3146237099971684e-05","-29,037397999658726","-0,000325875499999997","5,8663184849687475e-05","-49,348718408303654"
1900-01-01 09:51:50.198,COM12,,"-0,021","0,017","1,008","0,0","0,0","0,0","0,824","1,066","-3,329","83,161","42,575","76,440","20,34",96759,"389,12",,,,,,,,,,,,,,"0,1","2,5875000000001313e-05","-1,9546679670790737e-05","-29,91759799958291","-0,0003232879999999969","5,6708516882608404e-05","-52,34047820826194"
1900-01-01 09:51:50.298,COM12,,"-0,021","0,017","1,008","0,0","0,0","0,0","0,824","1,066","-3,329","83,161","42,575","76,453","20,31",96759,"389,12",,,,,,,,,,,,,,"0,1","3,8375000000001326e-05","-2,594712224160979e-05","-30,797797999507093","-0,00031945049999999674","5,4113804658447426e-05","-55,42025800821265"
1900-01-01 09:51:50.398,COM12,,"-0,021","0,017","1,008","0,0","0,0","0,0","0,824","1,066","-3,329","83,174","42,575","76,440","20,33",96759,"389,12",,,,,,,,,,,,,,"0,1","5,087500000000134e-05","-3,234756481242884e-05","-31,677997999431277","-0,0003143629999999966","5,087904817720454e-05","-58,588057808155774"
1900-01-01 09:51:50.498,COM12,,"-0,021","0,017","1,008","0,0","0,0","0,0","0,824","1,066","-3,329","83,174","42,575","76,440","20,34",96759,"389,12",,,,,,,,,,,,,,"0,1","6,337500000000135e-05","-3,87480073832479e-05","-32,558197999355464","-0,00030802549999999645","4,700424743887975e-05","-61,84387760809132"
1900-01-01 09:51:50.598,COM12,,"-0,021","0,017","1,008","0,0","0,0","0,0","0,824","1,066","-3,329","83,161","42,575","76,440","20,31",96759,"389,12",,,,,,,,,,,,,,"0,1","7,587500000000137e-05","-4,5148449954066955e-05","-33,43839799927965","-0,0003004379999999963","4,248940244347306e-05","-65,18771740801928"
1900-01-01 09:51:50.698,COM12,,"-0,021","0,017","1,009","0,0","0,0","0,0","0,824","1,066","-3,329","83,161","42,575","76,427","20,33",96759,"389,12",,,,,,,,,,,,,,"0,1","8,837500000000138e-05","-5,154780169410353e-05","-34,31849799920384","-0,00029160049999999615","3,73346222740627e-05","-68,61956720793967"
1900-01-01 09:51:50.798,COM12,,"-0,021","0,017","1,008","0,0","0,0","0,0","0,824","1,066","-3,329","83,174","42,575","76,440","20,33",96759,"389,12",,,,,,,,,,,,,,"0,1","0,00010087500000000138","-5,794824426492259e-05","-35,19869799912803","-0,000281512999999996","3,153979784757044e-05","-72,13943700785246"
1900-01-01 09:51:50.898,COM12,,"-0,022","0,017","1,008","0,0","0,0","0,0","0,824","1,066","-3,329","83,161","42,575","76,440","20,33",96759,"389,12",,,,,,,,,,,,,,"0,1","1,337500000000164e-05","-6,434868683574164e-05","-36,07889799905222","-0,0002801754999999958","2,5104929163996275e-05","-75,74732680775769"
1900-01-01 09:51:50.999,COM12,,"-0,022","0,017","1,008","0,0","0,0","0,0","0,824","1,066","-3,329","83,174","42,575","76,440","20,33",96759,"389,12",,,,,,,,,,,,,,"0,101","-7,49999999999981e-05","-7,081313383226889e-05","-36,967899998975646","-0,0002877504999999956","1,7952802646937115e-05","-79,48108470765423"
1900-01-01 09:51:51.098,COM12,,"-0,021","0,017","1,008","0,0","0,0","0,0","0,824","1,066","-3,329","83,174","42,575","76,440","20,34",96759,"389,12",,,,,,,,,,,,,,"0,099","-6,262499999999808e-05","-7,714957197737976e-05","-37,83929799890059","-0,00029395037499999543","1,0314995021176518e-05","-83,2271752095454"
1900-01-01 09:51:51.198,COM12,,"-0,021","0,017","1,009","0,0","0,0","0,0","0,824","1,066","-3,329","83,161","42,562","76,440","20,33",96759,"389,12",,,,,,,,,,,,,,"0,1","-5,012499999999807e-05","-8,354892371741634e-05","-38,71939799882478","-0,00029896287499999526","1,9601026494348844e-06","-87,09911500942788"
1900-01-01 09:51:51.298,COM12,,"-0,021","0,017","1,008","0,0","0,0","0,0","0,824","1,066","-3,329","83,174","42,562","76,440","20,36",96759,"389,12",,,,,,,,,,,,,,"0,1","-3,7624999999998055e-05","-8,99493662882354e-05","-39,59959799874897","-0,0003027253749999951","-7,034833979388655e-06","-91,05907480930277"
1900-01-01 09:51:51.398,COM12,,"-0,022","0,018","1,008","0,0","0,0","0,0","0,824","1,066","-3,329","83,174","42,575","76,440","20,33",96759,"389,12",,,,,,,,,,,,,,"0,1","-0,0001251249999999978","3,650191134995737e-06","-40,47979799976398","-0,0003152378749999949","-6,6698148658890815e-06","-95,10705460927917"
1900-01-01 09:51:51.498,COM12,,"-0,021","0,017","1,008","0,0","0,0","0,0","0,824","1,066","-3,329","83,174","42,575","76,440","20,34",96759,"389,12",,,,,,,,,,,,,,"0,1","-0,00011262499999999779","-2,7502514358233167e-06","-41,35999799968817","-0,0003265003749999947","-6,944840009471413e-06","-99,24305440924799"
1900-01-01 09:51:51.598,COM12,,"-0,021","0,017","1,008","0,0","0,0","0,0","0,824","1,066","-3,329","83,187","42,575","76,440","20,33",96759,"389,12",,,,,,,,,,,,,,"0,1","-0,00010012499999999779","-9,15069400664237e-06","-42,240197999612356","-0,00033651287499999446","-7,85990941013565e-06","-103,46707420920923"
1900-01-01 09:51:51.698,COM12,,"-0,021","0,017","1,008","0,0","0,0","0,0","0,824","1,066","-3,329","83,174","42,575","76,440","20,36",96759,"389,12",,,,,,,,,,,,,,"0,1","-8,762499999999778e-05","-1,5551136577461425e-05","-43,12039799953654","-0,00034527537499999425","-9,415023067881793e-06","-107,77911400916288"
1900-01-01 09:51:51.798,COM12,,"-0,021","0,017","1,008","0,0","0,0","0,0","0,824","1,066","-3,329","83,174","42,575","76,440","20,34",96759,"389,12",,,,,,,,,,,,,,"0,1","-7,512499999999777e-05","-2,1951579148280477e-05","-44,00059799946073","-0,00035278787499999403","-1,161018098270984e-05","-112,17917380910896"
1900-01-01 09:51:51.898,COM12,,"-0,021","0,016","1,009","0,0","0,0","0,0","0,824","1,066","-3,329","83,174","42,575","76,440","20,36",96759,"389,12",,,,,,,,,,,,,,"0,1","-6,262499999999777e-05","-0,0001283509308823676","-44,88069799829409","-0,0003590503749999938","-2,4445274070946602e-05","-116,66724360893836"
1900-01-01 09:51:51.998,COM12,,"-0,021","0,017","1,008","0,0","0,0","0,0","0,824","1,066","-3,329","83,174","42,575","76,440","20,34",96759,"389,12",,,,,,,,,,,,,,"0,1","-5,0124999999997756e-05","-0,00013475137345318665","-45,760897998218276","-0,0003640628749999936","-3,792041141626527e-05","-121,2433334087602"
1900-01-01 09:51:52.098,COM12,,"-0,021","0,017","1,008","0,0","0,0","0,0","0,824","1,066","-3,329","83,187","42,575","76,440","20,36",96759,"389,12",,,,,,,,,,,,,,"0,1","-3,762499999999774e-05","-0,0001411518160240057","-46,64109799814246","-0,00036782537499999336","-5,203559301866584e-05","-125,90744320857443"
1900-01-01 09:51:52.198,COM12,,"-0,021","0,017","1,008","0,0","0,0","0,0","0,824","1,066","-3,329","83,174","42,562","76,453","20,34",96759,"389,12",,,,,,,,,,,,,,"0,1","-2,512499999999773e-05","-0,00014755225859482474","-47,52129799806665","-0,00037033787499999313","-6,679081887814832e-05","-130,6595730083811"
1900-01-01 09:51:52.298,COM12,,"-0,021","0,017","1,008","0,0","0,0","0,0","0,824","1,066","-3,329","83,174","42,575","76,440","20,34",96759,"389,12",,,,,,,,,,,,,,"0,1","-1,2624999999997718e-05","-0,00015395270116564378","-48,40149799799084","-0,0003716003749999929","-8,21860889947127e-05","-135,4997228081802"
1900-01-01 09:51:52.398,COM12,,"-0,021","0,017","1,008","0,0","0,0","0,0","0,824","1,066","-3,329","83,174","42,575","76,453","20,34",96759,"389,12",,,,,,,,,,,,,,"0,1","-1,2499999999770589e-07","-0,00016035314373646282","-49,281697997915025","-0,00037161287499999266","-9,822140336835899e-05","-140,4278926079717"
1900-01-01 09:51:52.497,COM12,,"-0,021","0,017","1,008","0,0","0,0","0,0","0,824","1,066","-3,329","83,174","42,575","76,453","20,36",96759,"389,12",,,,,,,,,,,,,,"0,099","1,2250000000002305e-05","-0,0001666895818815737","-50,15309599783997","-0,00037040012499999246","-0,00011472367197463478","-145,39304911175785"
1900-01-01 09:51:52.597,COM12,,"-0,022","0,017","1,008","0,0","0,0","0,0","0,824","1,066","-3,329","83,174","42,575","76,453","20,33",96759,"389,12",,,,,,,,,,,,,,"0,1","-7,524999999999744e-05","-0,00017309002445239273","-51,03329599776416","-0,0003779251249999922","-0,00013203267441987406","-150,49637871153425"
1900-01-01 09:51:52.697,COM12,,"-0,021","0,017","1,009","0,0","0,0","0,0","0,824","1,066","-3,329","83,174","42,562","76,440","20,33",96759,"389,12",,,,,,,,,,,,,,"0,1","-6,274999999999743e-05","-0,0001794893761924293","-51,91339599768835","-0,000384200124999992","-0,000149981612039117","-155,6877183113031"
1900-01-01 09:51:52.797,COM12,,"-0,021","0,017","1,008","0,0","0,0","0,0","0,824","1,066","-3,329","83,174","42,575","76,453","20,34",96759,"389,12",,,,,,,,,,,,,,"0,1","-5,024999999999742e-05","-0,00018588981876324834","-52,793595997612535","-0,00038922512499999174","-0,00016857059391544183","-160,96707791106434"
1900-01-01 09:51:52.897,COM12,,"-0,021","0,018","1,008","0,0","0,0","0,0","0,824","1,066","-3,329","83,174","42,575","76,453","20,36",96759,"389,12",,,,,,,,,,,,,,"0,1","-3,774999999999741e-05","-9,229026134001721e-05","-53,67379599862755","-0,0003930001249999915","-0,00017779962004944356","-166,33445751092708"
1900-01-01 09:51:52.997,COM12,,"-0,021","0,017","1,008","0,0","0,0","0,0","0,824","1,066","-3,329","83,174","42,575","76,466","20,36",96759,"389,12",,,,,,,,,,,,,,"0,1","-2,5249999999997395e-05","-9,869070391083627e-05","-54,553995998551734","-0,00039552512499999124","-0,0001876686904405272","-171,78985711078226"
1900-01-01 09:51:53.097,COM12,,"-0,021","0,017","1,008","0,0","0,0","0,0","0,824","1,066","-3,329","83,174","42,575","76,453","20,36",96759,"389,12",,,,,,,,,,,,,,"0,1","-1,2749999999997383e-05","-0,00010509114648165532","-55,43419599847592","-0,000396800124999991","-0,00019817780508869274","-177,33327671062986"
1900-01-01 09:51:53.197,COM12,,"-0,021","0,018","1,008","0,0","0,0","0,0","0,824","1,066","-3,329","83,174","42,575","76,453","20,34",96759,"389,12",,,,,,,,,,,,,,"0,1","-2,499999999973701e-07","-1,1491589058424193e-05","-56,314395999490934","-0,00039682512499999073","-0,00019932696399453515","-182,96471631057895"
1900-01-01 09:51:53.298,COM12,,"-0,022","0,017","1,008","0,0","0,0","0,0","0,824","1,066","-3,329","83,174","42,562","76,453","20,37",96759,"389,12",,,,,,,,,,,,,,"0,101","-8,86249999999971e-05","-1,7956036054951436e-05","-57,20339799941436","-0,00040577624999999043","-0,00020114052363608525","-188,7422595085198"
1900-01-01 09:51:53.398,COM12,,"-0,021","0,017","1,008","0,0","0,0","0,0","0,824","1,066","-3,329","83,174","42,562","76,440","20,36",96759,"389,12",,,,,,,,,,,,,,"0,1","-7,61249999999971e-05","-2,435647862577049e-05","-58,08359799933855","-0,00041338874999999017","-0,0002035761714986623","-194,55061930845366"
1900-01-01 09:51:53.498,COM12,,"-0,021","0,017","1,007","0,0","0,0","0,0","0,824","1,066","-3,329","83,174","42,562","76,453","20,37",96759,"389,12",,,,,,,,,,,,,,"0,1","-6,362499999999709e-05","-3,075801202737202e-05","-58,96389799926273","-0,0004197512499999899","-0,00020665197270139949","-200,44700910837994"
1900-01-01 09:51:53.598,COM12,,"-0,021","0,017","1,008","0,0","0,0","0,0","0,824","1,066","-3,329","83,174","42,575","76,440","20,34",96759,"389,12",,,,,,,,,,,,,,"0,1","-5,1124999999997075e-05","-3,7158454598191074e-05","-59,844097999186914","-0,0004248637499999896","-0,00021036781816121858","-206,43141890829864"
1900-01-01 09:51:53.698,COM12,,"-0,021","0,017","1,008","0,0","0,0","0,0","0,824","1,066","-3,329","83,174","42,575","76,440","20,36",96759,"389,12",,,,,,,,,,,,,,"0,1","-3,862499999999706e-05","-4,355889716901013e-05","-60,7242979991111","-0,00042872624999998934","-0,0002147237078781196","-212,50384870820974"
1900-01-01 09:51:53.798,COM12,,"-0,021","0,017","1,007","0,0","0,0","0,0","0,824","1,066","-3,329","83,174","42,575","76,453","20,34",96759,"389,12",,,,,,,,,,,,,,"0,1","-2,612499999999705e-05","-4,996043057061166e-05","-61,60459799903528","-0,00043133874999998906","-0,00021971975093518077","-218,66430850811327"
1900-01-01 09:51:53.898,COM12,,"-0,022","0,017","1,008","0,0","0,0","0,0","0,824","1,066","-3,329","83,161","42,575","76,453","20,36",96759,"389,12",,,,,,,,,,,,,,"0,1","-0,00011362499999999679","-5,636087314143071e-05","-62,484797998959465","-0,00044270124999998874","-0,00022535583824932385","-224,91278830800923"
1900-01-01 09:51:53.996,COM12,,"-0,021","0,018","1,008","0,0","0,0","0,0","0,824","1,066","-3,329","83,174","42,575","76,453","20,34",96759,"389,12",,,,,,,,,,,,,,"0,098","-0,00010137499999999677","3,53666931333358e-05","-63,34739399995418","-0,0004526359999999884","-0,00022188990232225694","-231,12083292000474"
1900-01-01 09:51:54.096,COM12,,"-0,021","0,017","1,009","0,0","0,0","0,0","0,824","1,066","-3,329","83,174","42,562","76,440","20,34",96759,"389,12",,,,,,,,,,,,,,"0,1","-8,887499999999675e-05","2,8967341393299226e-05","-64,22749399987836","-0,0004615234999999881","-0,000218993168182927","-237,5435823199926"
1900-01-01 09:51:54.196,COM12,,"-0,021","0,017","1,008","0,0","0,0","0,0","0,824","1,066","-3,329","83,174","42,575","76,440","20,36",96759,"389,12",,,,,,,,,,,,,,"0,1","-7,637499999999675e-05","2,2566898822480173e-05","-65,10769399980255","-0,0004691609999999878","-0,000216736478300679","-244,05435171997286"
1900-01-01 09:51:54.296,COM12,,"-0,021","0,017","1,008","0,0","0,0","0,0","0,824","1,066","-3,329","83,174","42,562","76,453","20,33",96759,"389,12",,,,,,,,,,,,,,"0,1","-6,387499999999674e-05","1,616645625166112e-05","-65,98789399972674","-0,0004755484999999875","-0,00021511983267551288","-250,65314111994553"
1900-01-01 09:51:54.396,COM12,,"-0,021","0,017","1,008","0,0","0,0","0,0","0,824","1,066","-3,329","83,174","42,562","76,453","20,36",96759,"389,12",,,,,,,,,,,,,,"0,1","-5,137499999999673e-05","9,766013680842067e-06","-66,86809399965092","-0,0004806859999999872","-0,00021414323130742867","-257,33995051991064"
1900-01-01 09:51:54.496,COM12,,"-0,021","0,016","1,008","0,0","0,0","0,0","0,824","1,066","-3,329","83,174","42,562","76,440","20,37",96759,"389,12",,,,,,,,,,,,,,"0,1","-3,8874999999996717e-05","-9,663442888402753e-05","-67,74829399848427","-0,00048457349999998686","-0,0002238066741958314","-264,1147799197591"
1900-01-01 09:51:54.596,COM12,,"-0,021","0,018","1,008","0,0","0,0","0,0","0,824","1,066","-3,329","83,174","42,575","76,453","20,39",96759,"389,12",,,,,,,,,,,,,,"0,1","-2,6374999999996704e-05","-3,0348714607964005e-06","-68,62849399949928","-0,00048721099999998654","-0,00022411016134191104","-270,977629319709"
1900-01-01 09:51:54.696,COM12,,"-0,021","0,017","1,008","0,0","0,0","0,0","0,824","1,066","-3,329","83,174","42,575","76,440","20,39",96759,"389,12",,,,,,,,,,,,,,"0,1","-1,3874999999996692e-05","-9,435314031615453e-06","-69,50869399942347","-0,0004885984999999862","-0,00022505369274507258","-277,9284987196514"
1900-01-01 09:51:54.796,COM12,,"-0,021","0,017","1,008","0,0","0,0","0,0","0,824","1,066","-3,329","83,161","42,562","76,453","20,34",96759,"389,12",,,,,,,,,,,,,,"0,1","-1,3749999999966792e-06","-1,5835756602434506e-05","-70,38889399934766","-0,0004887359999999858","-0,00022663726840531603","-284,96738811958613"
1900-01-01 09:51:54.896,COM12,,"-0,021","0,017","1,008","0,0","0,0","0,0","0,824","1,066","-3,329","83,174","42,562","76,440","20,36",96759,"389,12",,,,,,,,,,,,,,"0,1","1,1125000000003333e-05","-2,223619917325356e-05","-71,26909399927185","-0,0004876234999999855","-0,00022886088832264139","-292,0942975195133"
1900-01-01 09:51:54.996,COM12,,"-0,021","0,017","1,008","0,0","0,0","0,0","0,824","1,066","-3,329","83,174","42,575","76,453","20,39",96759,"389,12",,,,,,,,,,,,,,"0,1","2,3625000000003346e-05","-2,863664174407261e-05","-72,14929399919603","-0,00048526099999998516","-0,00023172455249704865","-299,3092269194329"
1900-01-01 09:51:55.096,COM12,,"-0,021","0,018","1,008","0,0","0,0","0,0","0,824","1,066","-3,329","83,174","42,562","76,453","20,36",96759,"389,12",,,,,,,,,,,,,,"0,1","3,612500000000336e-05","6,496291567915852e-05","-73,02949400021105","-0,0004816484999999848","-0,0002252282609291328","-306,61217631945397"
1900-01-01 09:51:55.196,COM12,,"-0,022","0,017","1,008","0,0","0,0","0,0","0,824","1,066","-3,329","83,174","42,562","76,453","20,39",96759,"389,12",,,,,,,,,,,,,,"0,1","-5,1374999999996383e-05","5,8562473108339464e-05","-73,90969400013523","-0,00048678599999998445","-0,00021937201361829886","-314,0031457194675"
1900-01-01 09:51:55.296,COM12,,"-0,021","0,018","1,008","0,0","0,0","0,0","0,824","1,066","-3,329","83,174","42,562","76,453","20,39",96759,"389,12",,,,,,,,,,,,,,"0,1","-3,887499999999637e-05","0,0001521620305315706","-74,78989400115024","-0,0004906734999999841","-0,0002041558105651418","-321,48213511958255"
1900-01-01 09:51:55.396,COM12,,"-0,021","0,017","1,008","0,0","0,0","0,0","0,824","1,066","-3,329","83,174","42,562","76,453","20,37",96759,"389,12",,,,,,,,,,,,,,"0,1","-2,637499999999636e-05","0,00014576158796075157","-75,67009400107443","-0,0004933109999999837","-0,00018957965176906666","-329,04914451969"
1900-01-01 09:51:55.496,COM12,,"-0,021","0,017","1,008","0,0","0,0","0,0","0,824","1,066","-3,329","83,174","42,562","76,453","20,37",96759,"389,12",,,,,,,,,,,,,,"0,1","-1,3874999999996346e-05","0,00013936114538993252","-76,55029400099862","-0,0004946984999999834","-0,0001756435372300734","-336,70417391978987"
1900-01-01 09:51:55.596,COM12,,"-0,021","0,017","1,008","0,0","0,0","0,0","0,824","1,066","-3,329","83,174","42,575","76,440","20,39",96759,"389,12",,,,,,,,,,,,,,"0,1","-1,3749999999963336e-06","0,00013296070281911348","-77,4304940009228","-0,000494835999999983","-0,00016234746694816204","-344,44722331988214"
1900-01-01 09:51:55.696,COM12,,"-0,021","0,017","1,007","0,0","0,0","0,0","0,824","1,066","-3,329","83,174","42,562","76,440","20,36",96759,"389,12",,,,,,,,,,,,,,"0,1","1,1125000000003679e-05","0,00012655916941751197","-78,31079400084698","-0,0004937234999999827","-0,00014969155000641086","-352,27830271996686"
1900-01-01 09:51:55.796,COM12,,"-0,021","0,018","1,008","0,0","0,0","0,0","0,824","1,066","-3,329","83,174","42,562","76,453","20,36",96759,"389,12",,,,,,,,,,,,,,"0,1","2,362500000000369e-05","0,0002201587268407431","-79,190994001862","-0,0004913609999999823","-0,00012767567732233654","-360,1974021201531"
1900-01-01 09:51:55.895,COM12,,"-0,022","0,017","1,008","0,0","0,0","0,0","0,824","1,066","-3,329","83,161","42,549","76,453","20,37",96759,"389,12",,,,,,,,,,,,,,"0,099","-6,299999999999604e-05","0,00021382228869563225","-80,06239200178693","-0,0004975979999999819","-0,00010650727074146895","-368,12357892833"
1900-01-01 09:51:55.996,COM12,,"-0,021","0,017","1,009","0,0","0,0","0,0","0,824","1,066","-3,329","83,174","42,562","76,453","20,34",96759,"389,12",,,,,,,,,,,,,,"0,101","-5,0374999999996034e-05","0,0002073589434381953","-80,95129300171037","-0,0005026858749999815","-8,556401745421122e-05","-376,29965952150275"
1900-01-01 09:51:56.096,COM12,,"-0,021","0,017","1,009","0,0","0,0","0,0","0,824","1,066","-3,329","83,161","42,562","76,453","20,39",96759,"389,12",,,,,,,,,,,,,,"0,1","-3,787499999999602e-05","0,00020095959169815874","-81,83139300163455","-0,0005064733749999812","-6,546805828439535e-05","-384,4827988216662"
1900-01-01 09:51:56.196,COM12,,"-0,021","0,017","1,008","0,0","0,0","0,0","0,824","1,066","-3,329","83,161","42,549","76,453","20,39",96759,"389,12",,,,,,,,,,,,,,"0,1","-2,537499999999601e-05","0,0001945591491273397","-82,71159300155874","-0,0005090108749999807","-4,601214337166138e-05","-392,7539581218221"
1900-01-01 09:51:56.296,COM12,,"-0,021","0,017","1,009","0,0","0,0","0,0","0,824","1,066","-3,329","83,174","42,562","76,453","20,34",96758,"389,2",,,,,,,,,,,,,,"0,1","-1,2874999999995996e-05","0,00018815979738730313","-83,59169300148292","-0,0005102983749999804","-2,7196163632931063e-05","-401,1131274219704"
1900-01-01 09:51:56.397,COM12,,"-0,021","0,017","1,009","0,0","0,0","0,0","0,824","1,066","-3,329","83,161","42,575","76,453","20,39",96759,"389,12",,,,,,,,,,,,,,"0,101","-2,4999999999598436e-07","0,0001816964521298662","-84,48059400140636","-0,00051032362499998","-8,844821967814575e-06","-409,6456674161124"
1900-01-01 09:51:56.497,COM12,,"-0,021","0,017","1,007","0,0","0,0","0,0","0,824","1,066","-3,329","83,161","42,588","76,440","20,36",96758,"389,2",,,,,,,,,,,,,,"0,1","1,2250000000004028e-05","0,00017529491872826468","-85,36089400133054","-0,0005090986249999795","8,684669905011895e-06","-418,18175681624547"
1900-01-01 09:51:56.595,COM12,,"-0,021","0,016","1,008","0,0","0,0","0,0","0,824","1,066","-3,329","83,161","42,575","76,427","20,36",96759,"389,12",,,,,,,,,,,,,,"0,098","2,4500000000004038e-05","7,102248501469248e-05","-86,22349000018723","-0,0005066976249999791","1,564487343645176e-05","-426,6316588362638"
1900-01-01 09:51:56.695,COM12,,"-0,021","0,017","1,008","0,0","0,0","0,0","0,824","1,06","-3,329","83,161","42,575","76,427","20,37",96758,"389,2",,,,,,,,,,,,,,"0,1","2,6444248626756867e-05","6,462204244387343e-05","-87,10368999935511","-0,0005040532001373035","2,2107077680839104e-05","-435,3420278361993"
1900-01-01 09:51:56.795,COM12,,"-0,021","0,017","1,009","0,0","0,0","0,0","0,818","1,06","-3,329","83,161","42,562","76,427","20,34",96759,"389,12",,,,,,,,,,,,,,"0,1","2,8378025265776554e-05","6,878891401912569e-05","-87,98378999840666","-0,0005012153976107259","2,8985969082751675e-05","-444,14040683604"
1900-01-01 09:51:56.895,COM12,,"-0,021","0,017","1,008","0,0","0,0","0,0","0,818","1,06","-3,329","83,161","42,562","76,440","20,39",96759,"389,12",,,,,,,,,,,,,,"0,1","3,032227388021906e-05","7,294422278810926e-05","-88,863989997457","-0,000498183170222704","3,62803913615626e-05","-453,0268058357857"
1900-01-01 09:51:56.995,COM12,,"-0,021","0,017","1,008","0,0","0,0","0,0","0,818","1,06","-3,329","83,161","42,549","76,440","20,39",96759,"389,12",,,,,,,,,,,,,,"0,1","3,226652249466157e-05","7,709953155709283e-05","-89,74418999650733","-0,0004949565179732378","4,3990344517271886e-05","-462,0012248354364"
1900-01-01 09:51:57.095,COM12,,"-0,021","0,016","1,008","0,0","0,0","0,0","0,818","1,055","-3,329","83,161","42,536","76,453","20,36",96759,"389,12",,,,,,,,,,,,,,"0,1","2,5414309380040413e-05","-1,8745159005431242e-05","-90,624389984209","-0,0004924150870352338","4,211582861672876e-05","-471,0636638338573"
1900-01-01 09:51:57.195,COM12,,"-0,021","0,017","1,008","0,0","0,0","0,0","0,818","1,055","-3,329","83,148","42,549","76,440","20,41",96759,"389,12",,,,,,,,,,,,,,"0,1","1,8562098485318685e-05","-1,4589850236447677e-05","-91,50458998347348","-0,000490558877186702","4,065684359308399e-05","-480,2141228322046"
1900-01-01 09:51:57.295,COM12,,"-0,021","0,017","1,009","0,0","0,0","0,0","0,813","1,055","-3,329","83,148","42,562","76,427","20,37",96759,"389,12",,,,,,,,,,,,,,"0,1","1,1690689112643754e-05","-1,6177925951097885e-06","-92,3846899834883","-0,0004893898082754376","4,049506433357301e-05","-489,45259183055344"
1900-01-01 09:51:57.395,COM12,,"-0,021","0,016","1,008","0,0","0,0","0,0","0,813","1,055","-3,329","83,148","42,562","76,440","20,39",96758,"389,2",,,,,,,,,,,,,,"0,1","4,8384744659324456e-06","-8,866602234787782e-05","-93,26488996320977","-0,0004889059608288443","3,162846209878523e-05","-498,7790808268744"
1900-01-01 09:51:57.495,COM12,,"-0,021","0,017","1,009","0,0","0,0","0,0","0,813","1,055","-3,329","83,135","42,575","76,427","20,37",96758,"389,2",,,,,,,,,,,,,,"0,1","-2,032934906742486e-06","-7,569396470653992e-05","-94,14498996322459","-0,0004891092543195185","2,405906562813124e-05","-508,19357982319684"
1900-01-01 09:51:57.595,COM12,,"-0,021","0,017","1,009","0,0","0,0","0,0","0,813","1,055","-3,329","83,148","42,562","76,427","20,36",96759,"389,12",,,,,,,,,,,,,,"0,1","-8,904344279417419e-06","-6,272190706520203e-05","-95,02508996323941","-0,0004899996887474603","1,7786874921611037e-05","-517,6960888195208"
1900-01-01 09:51:57.695,COM12,,"-0,021","0,017","1,009","0,0","0,0","0,0","0,813","1,049","-3,329","83,135","42,562","76,440","20,39",96759,"389,12",,,,,,,,,,,,,,"0,1","-2,6341976885125507e-05","-4,974984942386414e-05","-95,90518996452705","-0,0004926338864359728","1,2811889979224622e-05","-527,2866078159735"
1900-01-01 09:51:57.799,COM12,,"-0,022","0,017","1,008","0,0","0,0","0,0","0,813","1,049","-3,329","83,148","42,562","76,427","20,41",96759,"389,12",,,,,,,,,,,,,,"0,104","-0,00014844625279718373","-3,6280010507384566e-05","-96,8205979967169","-0,00050807229672688","9,038768886456627e-06","-537,355950007632"
1900-01-01 09:51:57.895,COM12,,"-0,021","0,019","1,008","0,0","0,0","0,0","0,813","1,049","-3,329","83,135","42,575","76,388","20,39",96759,"389,12",,,,,,,,,,,,,,"0,096","-0,00016515788476787204","0,0001681536830020269","-97,66559003690257","-0,0005239274536645957","2,5181522454651212e-05","-546,7318466511747"
1900-01-01 09:51:57.995,COM12,,"-0,022","0,05","1,011","0,0","0,0","0,0","0,818","1,049","-3,329","82,914","43,420","75,725","20,42",96759,"389,12",,,,,,,,,,,,,,"0,1","-0,0002826547411721734","0,0034723436581295657","-98,54549044869572","-0,000552192927781813","0,0003724158882676078","-556,5863956960443"
1900-01-01 09:51:58.095,COM12,,"-0,022","0,034","1,009","0,0","0,0","0,0","0,857","1,049","-3,329","81,250","50,258","70,551","20,42",96759,"389,12",,,,,,,,,,,,,,"0,1","-0,00040009264851565497","0,005107829811127056","-99,42558953885899","-0,0005922021926333785","0,0008831988693803134","-566,5289546499301"
1900-01-01 09:51:58.195,COM12,,"-0,021","0,033","1,011","0,0","0,0","0,0","0,917","1,049","-3,329","77,181","66,326","57,707","20,37",96758,"389,2",,,,,,,,,,,,,,"0,1","-0,0004175903452872229","0,0065373295496759885","-100,30548710349352","-0,0006339612271621008","0,0015369318243479123","-576,5595033602795"
1900-01-01 09:51:58.295,COM12,,"-0,024","0,035","1,006","-0,061","-0,122","-0,244","0,972","1,055","-3,34","69,537","92,469","34,333","20,41",96758,"389,2",,,,,,,,,,,,,,"0,1","-0,0007241105133792309","0,008071121575337592","-101,18588288270777","-0,0007063722785000239","0,0023440439818816715","-586,6780916485502"
1900-01-01 09:51:58.395,COM12,,"-0,021","0,068","1,009","-0,122","0,061","-0,122","1,038","1,049","-3,334","57,525","125,801","-2,548","20,41",96758,"389,2",,,,,,,,,,,,,,"0,1","-0,0007411419553929277","0,012787827318701109","-102,06596461820942","-0,0007804864740393166","0,0036228267137517825","-596,8846881103711"
1900-01-01 09:51:58.495,COM12,,"-0,021","0,018","1,009","-0,061","0,122","0,061","1,115","1,049","-3,329","39,767","157,924","-58,643","20,34",96759,"389,12",,,,,,,,,,,,,,"0,1","-0,0007585793427879726","0,012368967138425068","-102,94606544594033","-0,0008563444083181139","0,00485972342759429","-607,1792946549651"
1900-01-01 09:51:58.595,COM12,,"-0,02","0,0","1,009","-0,061","0,061","-0,061","1,126","1,044","-3,329","20,215","187,525","-122,369","20,42",96760,"389,04",,,,,,,,,,,,,,"0,1","-0,0006848181843045483","0,010130760616042117","-103,82617578738528","-0,0009248262267485687","0,005872799489198502","-617,5619122337037"
1900-01-01 09:51:58.695,COM12,,"-0,019","0,051","1,01","-0,061","0,0","-0,061","1,11","1,049","-3,323","-1,157","213,239","-190,892","20,39",96759,"389,12",,,,,,,,,,,,,,"0,1","-0,000502592717108799","0,013020185645802061","-104,70616008450015","-0,0009750854984594486","0,007174818053778708","-628,0325282421537"
1900-01-01 09:51:58.795,COM12,,"-0,02","0,017","1,007","0,183","-0,061","0,183","1,132","1,038","-3,323","-29,549","243,672","-270,751","20,42",96759,"389,12",,,,,,,,,,,,,,"0,1","-0,0004392459472702035","0,012472469102784349","-105,58646153085476","-0,001019010093186469","0,008422064964057143","-638,5911743952392"
1900-01-01 09:51:58.895,COM12,,"-0,023","0,021","1,011","0,0","-0,061","0,0","1,143","1,038","-3,318","-64,766","273,689","-349,089","20,39",96759,"389,12",,,,,,,,,,,,,,"0,1","-0,0006761205017514161","0,012303138892643135","-106,46636101438612","-0,0010866221433616108","0,009652378853321457","-649,2378104966779"
1900-01-01 09:51:58.995,COM12,,"-0,021","0,033","1,008","-0,122","0,122","-0,122","1,104","1,044","-3,318","-98,878","291,811","-405,184","20,37",96759,"389,12",,,,,,,,,,,,,,"0,1","-0,0007025388173243054","0,01340411468673231","-107,34655445028004","-0,0011568760250940413","0,010992790321994687","-659,9724659417059"
1900-01-01 09:51:59.095,COM12,,"-0,017","-0,007","1,009","-0,488","0,0","0,122","1,082","1,033","-3,307","-129,896","288,847","306,865","20,41",96758,"389,2",,,,,,,,,,,,,,"0,1","-0,00034704788366194994","0,010543529835345065","-108,22666606198385","-0,0011915808134602363","0,012047143305529194","-670,7951325479042"
1900-01-01 09:51:59.195,COM12,,"-0,018","0,038","1,011","0,0","-0,183","0,0","1,06","1,022","-3,307","-154,271","266,162","379,457","20,45",96758,"389,2",,,,,,,,,,,,,,"0,1","-0,00011283714048124899","0,012220777652625279","-109,10655810879723","-0,001202864527508361","0,013269221070791721","-681,7057883587839"
1900-01-01 09:51:59.295,COM12,,"-0,02","0,022","1,007","-0,671","0,061","-0,488","1,038","1,016","-3,323","-170,664","220,987","384,891","20,41",96758,"389,2",,,,,,,,,,,,,,"0,1","-8,822779389971643e-05","0,012338261185438251","-109,9868569131514","-0,0012116873068983328","0,014503047189335545","-692,7044740500991"
1900-01-01 09:51:59.395,COM12,,"-0,021","0,005","1,007","-0,305","0,061","0,061","1,033","1,022","-3,318","-169,702","141,492","385,658","20,41",96758,"389,2",,,,,,,,,,,,,,"0,1","-0,00015275382092673107","0,01076452879739465","-110,86716199066142","-0,001226962688991006","0,015579500069075011","-703,7911902491652"
1900-01-01 09:51:59.495,COM12,,"-0,024","0,024","1,008","-0,122","0,061","0,0","0,989","1,022","-3,323","-144,261","9,672","392,002","20,41",96758,"389,2",,,,,,,,,,,,,,"0,1","-0,0005177060115835749","0,011167804525017455","-111,74736066928573","-0,0012787332901493635","0,016696280521576755","-714,9659263160938"
1900-01-01 09:51:59.595,COM12,,"-0,019","0,01","1,01","-0,305","-0,427","-0,061","0,961","1,0","-3,329","-96,811","-128,310","-123,929","20,37",96758,"389,2",,,,,,,,,,,,,,"0,1","-0,0004215475054039733","0,010219907286604307","-112,62736246159437","-0,001320888040689761","0,017718271250237186","-726,2286625622532"
1900-01-01 09:51:59.695,COM12,,"-0,022","-0,013","1,009","-0,488","0,0","0,0","0,912","0,972","-3,334","-42,250","-225,680","-304,109","20,41",96758,"389,2",,,,,,,,,,,,,,"0,1","-0,0006748529750391549","0,007058562309667721","-113,50746744463726","-0,0013883733381936764","0,018424127481203957","-737,579409306717"
1900-01-01 09:51:59.794,COM12,,"-0,02","0,012","1,008","-0,244","0,0","-0,061","0,824","0,983","-3,334","0,039","-258,310","-236,665","20,42",96758,"389,2",,,,,,,,,,,,,,"0,099","-0,0007080828132747446","0,006557228769493556","-114,37886538252944","-0,0014584735367078761","0,019073293129383818","-748,9029169795874"
1900-01-01 09:51:59.894,COM12,,"-0,013","0,015","1,01","-0,366","-0,061","0,183","0,764","0,978","-3,329","34,723","-269,126","-127,491","20,45",96758,"389,2",,,,,,,,,,,,,,"0,1","-5,0708824906569704e-05","0,006456597557470495","-115,25886409072929","-0,001463544419198533","0,019718952885130866","-760,4288033886603"
1900-01-01 09:51:59.994,COM12,,"-0,021","-0,002","1,011","-0,183","0,122","0,061","0,725","0,972","-3,323","68,055","-282,893","-2,002","20,42",96757,"389,29",,,,,,,,,,,,,,"0,1","-0,00020389823349353667","0,0047248753904007516","-116,1387610423883","-0,0014839342425478868","0,02019144042417094","-772,0426794928991"
1900-01-01 09:52:00.095,COM12,,"-0,021","0,013","1,008","-0,305","0,0","0,366","0,665","0,972","-3,312","97,084","-288,574","107,562","20,41",96758,"389,2",,,,,,,,,,,,,,"0,101","-0,00035826361327077113","0,004596891050959002","-117,02776240715184","-0,0015201188674882347","0,020655726420317797","-783,8624834960215"
1900-01-01 09:52:00.195,COM12,,"-0,021","0,018","1,011","-0,305","0,0","-0,183","0,604","0,972","-3,318","118,079","-279,435","182,559","20,42",96758,"389,2",,,,,,,,,,,,,,"0,1","-0,000511719857407216","0,0050786589126925","-117,90766362840843","-0,0015712908532289562","0,021163592311587046","-795,6532498588623"
1900-01-01 09:52:00.295,COM12,,"-0,02","-0,018","1,01","-0,427","0,0","-0,122","0,549","0,961","-3,312","133,224","-261,118","233,155","20,39",96758,"389,2",,,,,,,,,,,,,,"0,1","-0,0005834443613091393","0,002057043147853449","-118,78764788752481","-0,0016296352893598702","0,02136929662637239","-807,5320146476148"
1900-01-01 09:52:00.395,COM12,,"-0,019","0,005","1,009","0,0","0,0","0,0","0,494","0,961","-3,307","144,274","-245,206","269,958","20,44",96758,"389,2",,,,,,,,,,,,,,"0,1","-0,0005556231399006923","0,0014318135863134714","-119,6677423796153","-0,0016851976033499395","0,021512477985003737","-819,4987888855763"
1900-01-01 09:52:00.495,COM12,,"-0,019","0,005","1,009","-0,427","-0,305","-0,244","0,467","0,956","-3,318","157,508","-235,924","306,137","20,42",96758,"389,2",,,,,,,,,,,,,,"0,1","-0,0005367372943327947","0,0008541275678073833","-120,54783658624996","-0,0017388713327832189","0,021597890741784476","-831,5535725442013"
1900-01-01 09:52:00.595,COM12,,"-0,019","-0,01","1,008","-0,244","-0,061","0,0","0,439","0,945","-3,318","173,992","-233,220","340,314","20,42",96758,"389,2",,,,,,,,,,,,,,"0,1","-0,0005367560465655794","-0,0011748893388075707","-121,42802042284899","-0,0017925469374397767","0,02148040180790372","-843,6963745864862"
1900-01-01 09:52:00.695,COM12,,"-0,013","-0,013","1,008","-0,122","0,061","-0,061","0,401","0,945","-3,312","189,371","-230,581","368,082","20,39",96757,"389,29",,,,,,,,,,,,,,"0,1","6,349800604249414e-05","-0,0034368559007021413","-122,30819945075069","-0,0017861971368355273","0,021136716217833505","-855,9271945315612"
1900-01-01 09:52:00.795,COM12,,"-0,013","0,003","1,005","-0,061","-0,122","0,732","0,324","0,961","-3,23","197,340","-226,902","381,550","20,39",96757,"389,29",,,,,,,,,,,,,,"0,1","0,0006927190524472999","-0,00396510268579776","-123,18868966889485","-0,0017169252315907973","0,02074020594925373","-868,2460634984507"
1900-01-01 09:52:00.895,COM12,,"-0,02","-0,033","1,009","0,0","0,0","1,221","0,264","0,956","-3,109","198,393","-226,408","383,214","20,41",96758,"389,2",,,,,,,,,,,,,,"0,1","0,000626856309757674","-0,007985379770873926","-124,0687454726934","-0,00165423960061503","0,019941667972166337","-880,65293804572"
1900-01-01 09:52:00.995,COM12,,"-0,019","0,009","1,008","0,0","-0,061","0,061","0,198","0,956","-3,104","198,523","-226,369","383,383","20,39",96758,"389,2",,,,,,,,,,,,,,"0,1","0,0006446701682796797","-0,0076903649476954715","-124,94894244763253","-0,001589772583787062","0,01917263147739679","-893,1478322904833"
1900-01-01 09:52:01.094,COM12,,"-0,02","0,009","1,008","-0,061","0,0","0,0","0,181","0,939","-3,098","198,523","-226,434","383,383","20,41",96759,"389,12",,,,,,,,,,,,,,"0,099","0,0005335476446042677","-0,007369207489901746","-125,82033776211074","-0,0015369513669712396","0,018443079935896518","-905,6040457289322"
1900-01-01 09:52:01.194,COM12,,"-0,019","0,009","1,008","0,0","0,0","0,0","0,181","0,934","-3,098","198,510","-226,512","383,331","20,41",96759,"389,12",,,,,,,,,,,,,,"0,1","0,0005125049688549261","-0,007044438314122851","-126,70053482914405","-0,001485700870085747","0,017738636104484232","-918,2740992118466"
1900-01-01 09:52:01.294,COM12,,"-0,019","0,009","1,008","0,0","-0,061","0,0","0,187","0,934","-3,098","198,510","-226,538","383,318","20,39",96759,"389,12",,,,,,,,,,,,,,"0,1","0,000491504774777503","-0,006730225089826691","-127,5807318627118","-0,0014365503926079967","0,017065613595501565","-931,0321723981178"
1900-01-01 09:52:01.394,COM12,,"-0,02","0,009","1,008","0,0","-0,061","0,0","0,198","0,934","-3,098","198,510","-226,590","383,318","20,42",96759,"389,12",,,,,,,,,,,,,,"0,1","0,00037058354852917983","-0,006435767620985328","-128,46092906818032","-0,0013994920377550786","0,01642203683340303","-943,8782653049359"
1900-01-01 09:52:01.493,COM12,,"-0,019","0,008","1,009","0,0","-0,061","0,0","0,209","0,928","-3,098","198,497","-226,629","383,305","20,42",96759,"389,12",,,,,,,,,,,,,,"0,099","0,00033965099230621413","-0,006260987552280565","-129,33222396419006","-0,0013658665895167634","0,015802199065727256","-956,6821554773907"
1900-01-01 09:52:01.593,COM12,,"-0,02","0,009","1,009","0,0","0,0","0,0","0,214","0,928","-3,098","198,471","-226,655","383,266","20,44",96759,"389,12",,,,,,,,,,,,,,"0,1","0,00020804197360561373","-0,005993657136396417","-130,21232111028584","-0,001345062392156202","0,015202833352087615","-969,7033875884192"
1900-01-01 09:52:01.693,COM12,,"-0,019","0,009","1,008","0,0","0,0","0,0","0,225","0,928","-3,098","198,471","-226,694","383,253","20,39",96759,"389,12",,,,,,,,,,,,,,"0,1","0,00017675489401356215","-0,005746340905460768","-131,0925179601947","-0,0013273869027548458","0,014628199261541538","-982,8126393844387"
1900-01-01 09:52:01.793,COM12,,"-0,019","0,009","1,008","0,0","0,0","0,0","0,231","0,928","-3,104","198,471","-226,707","383,266","20,42",96759,"389,12",,,,,,,,,,,,,,"0,1","0,00014553510585209854","-0,0055095773779034254","-131,97271478474443","-0,001312833392169636","0,014077241523751196","-996,0099108629132"
1900-01-01 09:52:01.893,COM12,,"-0,02","0,008","1,008","0,0","0,0","0,0","0,236","0,928","-3,104","198,484","-226,720","383,253","20,42",96759,"389,12",,,,,,,,,,,,,,"0,1","1,4741077484322642e-05","-0,00538199715948448","-132,85291080253782","-0,0013113592844212036","0,013539041807802748","-1009,295201943167"
1900-01-01 09:52:01.993,COM12,,"-0,019","0,009","1,008","0,0","0,0","0,0","0,247","0,928","-3,104","198,471","-226,733","383,240","20,45",96759,"389,12",,,,,,,,,,,,,,"0,1","-1,6368317974843202e-05","-0,005173382919988317","-133,73310756486757","-0,001312996116218688","0,013021703515803916","-1022,6685126996537"
1900-01-01 09:52:02.093,COM12,,"-0,019","0,009","1,007","0,0","0,0","0,0","0,253","0,928","-3,104","198,471","-226,746","383,227","20,42",96759,"389,12",,,,,,,,,,,,,,"0,1","-4,719155213145094e-05","-0,004976321371614258","-134,61340430062467","-0,001317715271431833","0,01252407137864249","-1036,1298531297161"
1900-01-01 09:52:02.194,COM12,,"-0,019","0,008","1,008","0,0","0,0","0,0","0,258","0,928","-3,104","198,471","-226,772","383,227","20,42",96759,"389,12",,,,,,,,,,,,,,"0,101","-7,814117651643073e-05","-0,004886161453017152","-135,5024019931617","-0,0013256075302599925","0,012030569071887758","-1049,8155957310255"
1900-01-01 09:52:02.294,COM12,,"-0,019","0,009","1,008","0,0","0,0","0,0","0,264","0,934","-3,104","198,458","-226,772","383,227","20,44",96758,"389,2",,,,,,,,,,,,,,"0,1","-9,857724377676242e-05","-0,004707414396202064","-136,38259869537657","-0,0013354652546376687","0,01155982763226755","-1063,4538556005632"
1900-01-01 09:52:02.394,COM12,,"-0,019","0,008","1,008","0,0","0,0","0,0","0,264","0,934","-3,104","198,458","-226,785","383,227","20,45",96759,"389,12",,,,,,,,,,,,,,"0,1","-0,00011862288595300481","-0,0046286617901837536","-137,26279441913445","-0,0013473275432329692","0,011096961453249175","-1077,1801350424766"
1900-01-01 09:52:02.493,COM12,,"-0,018","0,008","1,008","0,0","0,0","0,0","0,269","0,934","-3,104","198,445","-226,824","383,188","20,42",96759,"389,12",,,,,,,,,,,,,,"0,099","-3,9434913132174124e-05","-0,00455901671845238","-138,13418795114484","-0,0013512315996330544","0,01064561879812239","-1090,85541964964"
1900-01-01 09:52:02.595,COM12,,"-0,019","-0,005","1,008","0,0","0,0","0,0","0,269","0,934","-3,104","198,315","-227,006","382,967","20,42",96759,"389,12",,,,,,,,,,,,,,"0,102","-5,466893998460948e-05","-0,005813589284661401","-139,03197472412222","-0,0013568078315114845","0,010052632691086928","-1105,0366810715004"
1900-01-01 09:52:02.693,COM12,,"-0,02","-0,005","1,008","0,0","0,0","0,0","0,242","0,928","-3,104","197,262","-228,475","380,783","20,44",96758,"389,2",,,,,,,,,,,,,,"0,098","-0,00017783498046046513","-0,0069728300713894995","-139,89455385426163","-0,00137423565959661","0,009369295344090757","-1118,746347349218"
1900-01-01 09:52:02.793,COM12,,"-0,019","-0,003","1,008","0,0","0,0","0,0","0,214","0,928","-3,104","194,129","-231,153","375,453","20,42",96759,"389,12",,,,,,,,,,,,,,"0,1","-0,00020449073270026812","-0,00790608066654495","-140,7747379649123","-0,001394684732866637","0,008578687277436263","-1132,8238211457092"
1900-01-01 09:52:02.893,COM12,,"-0,017","0,006","1,008","0,0","0,0","0,0","0,192","0,934","-3,104","189,540","-233,818","367,055","20,44",96759,"389,12",,,,,,,,,,,,,,"0,1","-2,4255221681116813e-05","-0,007899855913567871","-141,65493119832934","-0,0013971102550347485","0,007788701686079476","-1146,9893142655421"
1900-01-01 09:52:02.993,COM12,,"-0,019","0,005","1,008","0,122","0,0","0,0","0,176","0,939","-3,104","183,768","-236,548","356,395","20,42",96760,"389,04",,,,,,,,,,,,,,"0,1","-3,4941065967909896e-05","-0,007966224688530341","-142,5351237646079","-0,0014006043616315396","0,006992079217226442","-1161,242826642003"
1900-01-01 09:52:03.093,COM12,,"-0,017","0,016","1,008","0,0","0,0","0,0","0,187","0,934","-3,104","177,229","-237,796","344,188","20,42",96760,"389,04",,,,,,,,,,,,,,"0,1","0,00014135880171184989","-0,006951272545378514","-143,4153281272866","-0,0013864684814603545","0,006296951962688591","-1175,5843594547316"
1900-01-01 09:52:03.193,COM12,,"-0,021","-0,001","1,007","0,0","0,0","-0,061","0,209","0,934","-3,104","170,599","-238,732","331,643","20,42",96760,"389,04",,,,,,,,,,,,,,"0,1","-7,531809191960601e-05","-0,007677555915971788","-144,2956147578857","-0,0013940002906523152","0,005529196371091412","-1190,0139209305203"
1900-01-01 09:52:03.295,COM12,,"-0,021","-0,024","1,007","-0,061","0,0","-0,122","0,198","0,939","-3,104","163,345","-240,786","316,108","20,42",96760,"389,04",,,,,,,,,,,,,,"0,102","-0,00027828639820428073","-0,010744449385793354","-145,19348130493157","-0,0014223855032691518","0,00443326253374049","-1204,8236560236232"
1900-01-01 09:52:03.393,COM12,,"-0,02","0,002","1,007","0,244","-0,061","0,0","0,165","0,934","-3,104","154,388","-246,103","292,877","20,44",96760,"389,04",,,,,,,,,,,,,,"0,098","-0,0003940762674748952","-0,011086048703593303","-146,05616484493072","-0,0014610049774816916","0,003346829760788346","-1219,1371601784265"
1900-01-01 09:52:03.493,COM12,,"-0,02","-0,006","1,009","0,305","0,061","0,305","0,132","0,934","-3,104","145,132","-257,517","264,225","20,45",96760,"389,04",,,,,,,,,,,,,,"0,1","-0,0005098085518975837","-0,012174134277977986","-146,93624433220748","-0,00151198583267145","0,0021294163329905473","-1233,8307846116472"
1900-01-01 09:52:03.593,COM12,,"-0,021","0,01","1,009","0,0","0,122","-0,061","0,132","0,939","-3,115","134,524","-274,001","229,671","20,42",96759,"389,12",,,,,,,,,,,,,,"0,1","-0,0007228745592040642","-0,011662666122933896","-147,816343372273","-0,0015842732885918563","0,0009631497206971577","-1248,6124189488746"
1900-01-01 09:52:03.694,COM12,,"-0,019","0,018","1,006","0,305","0,061","-0,061","0,154","0,939","-3,12","121,537","-289,289","184,808","20,45",96760,"389,04",,,,,,,,,,,,,,"0,101","-0,0007381273671580023","-0,010380062741345376","-148,7055551994349","-0,0016588241526748146","-8,523661617872527e-05","-1263,6316800240174"
1900-01-01 09:52:03.794,COM12,,"-0,024","0,03","1,007","0,244","0,0","0,0","0,203","0,934","-3,131","105,976","-297,765","128,557","20,42",96760,"389,04",,,,,,,,,,,,,,"0,1","-0,0012658152186657192","-0,007996934690320662","-149,58587607816975","-0,0017854056745413864","-0,0008849300852107916","-1278,5902676318344"
1900-01-01 09:52:03.893,COM12,,"-0,018","0,003","1,009","0,122","0,0","0,0","0,225","0,939","-3,131","86,866","-297,726","55,744","20,47",96759,"389,12",,,,,,,,,,,,,,"0,099","-0,0011766742496164546","-0,008344594172950724","-150,4571655255492","-0,0019018964252534155","-0,0017110449083329133","-1293,4855270188639"
1900-01-01 09:52:03.993,COM12,,"-0,021","0,017","1,009","0,122","-0,122","-0,427","0,242","0,95","-3,137","64,194","-288,795","-33,657","20,45",96759,"389,12",,,,,,,,,,,,,,"0,1","-0,0013718560121981473","-0,007326735504050211","-151,33727084739266","-0,00203908202647323","-0,0024437184587379345","-1308,6192541036032"
1900-01-01 09:52:04.093,COM12,,"-0,016","0,017","1,009","0,183","0,122","0,122","0,258","0,956","-3,142","38,779","-281,476","-129,896","20,44",96759,"389,12",,,,,,,,,,,,,,"0,1","-0,0010562955042719242","-0,00633536849647973","-152,21737490929047","-0,0021447115769004225","-0,0030772553083859076","-1323,8409915945322"
1900-01-01 09:52:04.193,COM12,,"-0,02","0,01","1,009","0,0","0,061","0,0","0,286","0,945","-3,148","11,856","-275,054","-220,285","20,45",96760,"389,04",,,,,,,,,,,,,,"0,1","-0,0011576467336579877","-0,0060946315066050995","-153,0974727042297","-0,0022604762502662214","-0,0036867184590464175","-1339,1507388649552"
1900-01-01 09:52:04.293,COM12,,"-0,02","-0,001","1,008","0,061","0,183","0,183","0,319","0,945","-3,153","-19,175","-260,351","-303,784","20,42",96760,"389,04",,,,,,,,,,,,,,"0,1","-0,0012552264876616011","-0,007012834786288063","-153,97766066579464","-0,0023859988990323814","-0,004388001937675224","-1354,5485049315346"
1900-01-01 09:52:04.393,COM12,,"-0,021","0,01","1,009","0,244","-0,061","-0,183","0,335","0,95","-3,148","-59,306","-209,521","-377,910","20,42",96759,"389,12",,,,,,,,,,,,,,"0,1","-0,0014474994184611296","-0,006858678230004894","-154,8577584855438","-0,002530748840878494","-0,005073869760675713","-1370,034280780089"
1900-01-01 09:52:04.493,COM12,,"-0,024","0,001","1,006","0,0","0,061","0,183","0,357","0,95","-3,142","-103,987","-117,923","224,484","20,42",96759,"389,12",,,,,,,,,,,,,,"0,1","-0,001936122177020732","-0,007646676201776803","-155,73814950473445","-0,0027243610585805673","-0,0058385373808533935","-1385,6080957305624"
1900-01-01 09:52:04.593,COM12,,"-0,022","0,042","1,008","0,061","-0,122","-0,122","0,379","0,956","-3,137","-143,221","4,277","368,654","20,44",96760,"389,04",,,,,,,,,,,,,,"0,1","-0,0022280786611292443","-0,004371235009274785","-156,6183722927324","-0,002947168924693492","-0,006275660881780872","-1401,2699329598356"
1900-01-01 09:52:04.693,COM12,,"-0,024","0,023","1,008","0,061","0,732","0,549","0,428","0,967","-3,126","-166,192","111,540","383,721","20,45",96760,"389,04",,,,,,,,,,,,,,"0,1","-0,0026943052875877467","-0,0030826193921361573","-157,49857945660293","-0,0032165994534522667","-0,0065839228209944875","-1417,019790905496"
1900-01-01 09:52:04.794,COM12,,"-0,019","0,012","1,008","0,122","0,0","0,0","0,472","0,972","-3,12","-173,563","182,806","385,840","20,47",96760,"389,04",,,,,,,,,,,,,,"0,101","-0,0026471258605903184","-0,0029684417783906055","-158,38758001500443","-0,003483959165371889","-0,006883735440611939","-1433,0169364870114"
1900-01-01 09:52:04.894,COM12,,"-0,021","0,006","1,01","0,366","-0,061","0,061","0,516","0,978","-3,115","-169,598","231,023","385,645","20,47",96759,"389,12",,,,,,,,,,,,,,"0,1","-0,002787652120129422","-0,0035324183784344594","-159,26757561462867","-0,003762724377384831","-0,007236977278455385","-1448,9436940484743"
1900-01-01 09:52:04.992,COM12,,"-0,021","0,017","1,008","0,122","0,122","0,122","0,549","0,978","-3,115","-157,768","264,134","390,104","20,45",96759,"389,12",,,,,,,,,,,,,,"0,098","-0,002928868169583289","-0,003065087578340806","-160,13017281997273","-0,004049753458003994","-0,007537355861132784","-1464,6364509848315"
1900-01-01 09:52:05.092,COM12,,"-0,023","-0,023","1,008","0,061","0,061","-0,183","0,588","0,983","-3,12","-141,674","285,779","400,660","20,42",96759,"389,12",,,,,,,,,,,,,,"0,1","-0,0032493100240095075","-0,006657454928735471","-161,01035750652116","-0,004374684460404944","-0,00820310135400633","-1480,7374867354836"
1900-01-01 09:52:05.194,COM12,,"-0,02","0,007","1,009","-0,061","0,061","0,122","0,577","1,0","-3,115","-118,638","297,921","-61,516","20,45",96759,"389,12",,,,,,,,,,,,,,"0,102","-0,003250940163820737","-0,007240308492732921","-161,90805596244437","-0,004706280357114659","-0,008941612820265088","-1497,2521084436528"
1900-01-01 09:52:05.292,COM12,,"-0,022","0,0","1,009","0,244","0,0","0,0","0,56","0,994","-3,126","-88,699","291,772","-341,809","20,45",96759,"389,12",,,,,,,,,,,,,,"0,098","-0,0034566453503125675","-0,008457684542021142","-162,77054747444797","-0,0050450316014452904","-0,00977046590538316","-1513,2036220961486"
1900-01-01 09:52:05.393,COM12,,"-0,023","0,032","1,01","-0,122","0,0","0,0","0,577","0,994","-3,131","-54,210","270,413","-316,329","20,44",96759,"389,12",,,,,,,,,,,,,,"0,101","-0,003780931205123139","-0,006510509897345407","-163,65935526053764","-0,005426905653162727","-0,010428027405015045","-1529,733216977463"
1900-01-01 09:52:05.493,COM12,,"-0,019","0,039","1,007","0,0","0,0","-0,061","0,632","1,005","-3,137","-24,960","241,930","-250,042","20,45",96759,"389,12",,,,,,,,,,,,,,"0,1","-0,003684115344750836","-0,003979136874745139","-164,53966303149383","-0,005795317187637811","-0,01082594109248956","-1546,1871832806123"
1900-01-01 09:52:05.592,COM12,,"-0,02","0,015","1,008","0,0","0,061","0,0","0,687","1,011","-3,137","-1,170","216,593","-183,014","20,47",96759,"389,12",,,,,,,,,,,,,,"0,099","-0,0036686489713953544","-0,003944808171311936","-165,41106076500913","-0,006158513435805951","-0,011216477101449442","-1562,5628782963481"
1900-01-01 09:52:05.692,COM12,,"-0,019","0,014","1,011","0,0","0,183","0,305","0,709","1,016","-3,148","18,031","192,192","-122,304","20,42",96759,"389,12",,,,,,,,,,,,,,"0,1","-0,0035440495319525546","-0,00404789104790687","-166,29096020338162","-0,006512918389001207","-0,011621266206240129","-1579,1919743166864"
1900-01-01 09:52:05.792,COM12,,"-0,021","0,025","1,008","0,183","-0,244","-0,122","0,758","1,022","-3,142","34,177","168,454","-70,278","20,45",96758,"389,2",,,,,,,,,,,,,,"0,1","-0,003611926347682986","-0,0031383954777962127","-167,171161213193","-0,006874111023769505","-0,01193510575401975","-1595,9090904380057"
1900-01-01 09:52:05.892,COM12,,"-0,022","0,032","1,009","-0,061","-0,061","-0,183","0,802","1,022","-3,153","48,373","145,860","-27,001","20,45",96758,"389,2",,,,,,,,,,,,,,"0,1","-0,0037816177281759554","-0,0016065661548468747","-168,05126190736652","-0,007252272796587101","-0,012095762369504439","-1612,7142166287424"
1900-01-01 09:52:05.992,COM12,,"-0,021","0,02","1,008","0,0","0,0","0,0","0,84","1,022","-3,159","59,943","119,639","8,450","20,45",96758,"389,2",,,,,,,,,,,,,,"0,1","-0,003847313946468112","-0,0013413090345313578","-168,93146185262862","-0,007637004191233912","-0,012229893272957575","-1629,6073628140052"
1900-01-01 09:52:06.093,COM12,,"-0,021","0,025","1,007","0,0","-0,061","-0,122","0,873","1,027","-3,164","69,446","92,183","36,036","20,48",96758,"389,2",,,,,,,,,,,,,,"0,101","-0,0039059766661672605","-0,0006269218114419772","-169,82056422804644","-0,008031507834516805","-0,012293212375913215","-1646,759239801038"
1900-01-01 09:52:06.193,COM12,,"-0,022","0,032","1,008","0,0","-0,061","-0,061","0,89","1,027","-3,164","76,843","65,949","58,864","20,47",96758,"389,2",,,,,,,,,,,,,,"0,1","-0,0040660563588554785","0,0007501082491337415","-170,70076267361793","-0,008438113470402353","-0,012218201550999841","-1663,8293160683997"
1900-01-01 09:52:06.293,COM12,,"-0,021","0,017","1,01","0,183","0,0","-0,061","0,989","1,033","-3,17","81,952","46,059","73,814","20,45",96758,"389,2",,,,,,,,,,,,,,"0,1","-0,004110902845202662","0,0004527256995058808","-171,58076312032728","-0,00884920375492262","-0,012172928981049254","-1680,9873923804325"
1900-01-01 09:52:06.393,COM12,,"-0,021","0,019","1,009","-0,122","0,0","0,0","1,055","1,033","-3,175","82,927","41,990","76,700","20,47",96758,"389,2",,,,,,,,,,,,,,"0,1","-0,004155943845242575","0,00023940445620720558","-172,46086317147765","-0,009264798139446877","-0,012148988535428533","-1698,2334786975803"
1900-01-01 09:52:06.493,COM12,,"-0,02","0,011","1,006","-0,061","0,0","0,0","1,038","1,027","-3,175","82,927","41,834","76,791","20,48",96759,"389,12",,,,,,,,,,,,,,"0,1","-0,004109278461147356","-0,0007426126718550624","-173,3412660781936","-0,009675725985561613","-0,012223249802614038","-1715,5676053053996"
1900-01-01 09:52:06.593,COM12,,"-0,021","0,016","1,008","0,0","0,0","0,0","1,033","1,027","-3,175","82,823","42,146","76,596","20,48",96758,"389,2",,,,,,,,,,,,,,"0,1","-0,00416411565634456","-0,0012168527042022922","-174,22146715061115","-0,010092137551196069","-0,012344935073034267","-1732,9897520204609"
1900-01-01 09:52:06.693,COM12,,"-0,021","0,016","1,008","0,0","0,0","0,0","1,022","1,027","-3,175","82,797","42,237","76,544","20,48",96758,"389,2",,,,,,,,,,,,,,"0,1","-0,004219004926654931","-0,0016717407902904157","-175,10166813386743","-0,010514038043861562","-0,012512109152063309","-1750,4999188338477"
1900-01-01 09:52:06.793,COM12,,"-0,021","0,016","1,008","0,0","0,0","0,0","1,011","1,027","-3,175","82,797","42,289","76,518","20,47",96758,"389,2",,,,,,,,,,,,,,"0,1","-0,0042739462695945895","-0,0021072769133516074","-175,9818690316778","-0,010941432670821021","-0,012722836843398469","-1768,0981057370154"
1900-01-01 09:52:06.893,COM12,,"-0,021","0,017","1,009","0,0","0,0","0,0","1,0","1,033","-3,175","82,797","42,315","76,505","20,47",96758,"389,2",,,,,,,,,,,,,,"0,1","-0,004318709782759774","-0,002423739756244789","-176,8619695368327","-0,011373303649096998","-0,012965210819022948","-1785,7843026906987"
1900-01-01 09:52:06.992,COM12,,"-0,021","0,016","1,008","0,0","0,0","0,0","0,983","1,033","-3,175","82,797","42,341","76,505","20,45",96758,"389,2",,,,,,,,,,,,,,"0,099","-0,004362782840113433","-0,0028061254132917494","-177,7333682216685","-0,011805219150268227","-0,013243017234938832","-1803,3799061446439"
1900-01-01 09:52:07.092,COM12,,"-0,021","0,017","1,009","0,0","0,0","0,0","0,972","1,033","-3,175","82,797","42,354","76,505","20,50",96758,"389,2",,,,,,,,,,,,,,"0,1","-0,0044076789678548","-0,003073279598882568","-178,61346858427828","-0,012245987047053708","-0,013550345194827089","-1821,2412530030717"
1900-01-01 09:52:07.192,COM12,,"-0,021","0,017","1,007","0,0","0,0","0,0","0,961","1,033","-3,175","82,797","42,354","76,492","20,45",96758,"389,2",,,,,,,,,,,,,,"0,1","-0,0044525132789462905","-0,0033205861621408974","-179,4937688968813","-0,012691238374948337","-0,013882403811041178","-1839,19062989276"
