Time,Device name,Chip Time(),Acceleration X(g),Acceleration Y(g),Acceleration Z(g),Angular velocity X(°/s),Angular velocity Y(°/s),Angular velocity Z(°/s),Angle X(°),Angle Y(°),Angle Z(°),Magnetic field X(ʯt),Magnetic field Y(ʯt),Magnetic field Z(ʯt),Temperature(℃),Pressure(Pa),Height(m),Longitude(),Latitude(),GPS ground speed(km),Angle of course(°),GPS height(m),Number of satellites(),Position location(),Horizontal position(),Vertical position(),Quaternions 0(),Quaternions 1(),Quaternions 2(),Quaternions 3(),Delta_t,Velocity X(m/s),Velocity Y(m/s),Velocity Z(m/s),Position X(m),Position Y(m),Position Z(m)
1900-01-01 09:51:45.800,COM12,,"-0,021","0,017","1,008","0,0","0,0","0,0","0,829","1,066","-3,329","83,161","42,588","76,427","20,28",96759,"389,12",,,,,,,,,,,,,,,"0,0","0,0","0,0","0,0","0,0","0,0"
1900-01-01 09:51:45.900,COM12,,"-0,021","0,017","1,008","0,0","0,0","0,0","0,829","1,066","-3,329","83,174","42,588","76,427","20,28",96759,"389,12",,,,,,,,,,,,,,"0,1","0,0","0,0","0,0","0,0","0,0","0,0"
1900-01-01 09:51:46.000,COM12,,"-0,021","0,018","1,008","0,0","0,0","0,0","0,829","1,066","-3,329","83,161","42,588","76,427","20,28",96759,"389,12",,,,,,,,,,,,,,"0,1","0,0","0,0","0,0","0,0","0,0","0,0"
1900-01-01 09:51:46.099,COM12,,"-0,021","0,017","1,008","0,0","0,0","0,0","0,829","1,066","-3,329","83,161","42,588","76,427","20,29",96759,"389,12",,,,,,,,,,,,,,"0,099","0,0","0,0","0,0","0,0","0,0","0,0"
1900-01-01 09:51:46.199,COM12,,"-0,021","0,017","1,009","0,0","0,0","0,0","0,829","1,066","-3,329","83,174","42,588","76,427","20,29",96760,"389,04",,,,,,,,,,,,,,"0,1","0,0","0,0","0,0","0,0","0,0","0,0"
1900-01-01 09:51:46.299,COM12,,"-0,022","0,017","1,008","0,0","0,0","0,0","0,824","1,066","-3,329","83,161","42,575","76,427","20,31",96759,"389,12",,,,,,,,,,,,,,"0,1","0,0","0,0","0,0","0,0","0,0","0,0"
1900-01-01 09:51:46.399,COM12,,"-0,021","0,017","1,008","0,0","0,0","0,0","0,824","1,066","-3,329","83,161","42,575","76,414","20,29",96759,"389,12",,,,,,,,,,,,,,"0,1","0,0","0,0","0,0","0,0","0,0","0,0"
1900-01-01 09:51:46.499,COM12,,"-0,021","0,017","1,008","0,0","0,0","0,0","0,824","1,066","-3,329","83,161","42,588","76,440","20,29",96759,"389,12",,,,,,,,,,,,,,"0,1","0,0","0,0","0,0","0,0","0,0","0,0"
1900-01-01 09:51:46.599,COM12,,"-0,021","0,017","1,008","0,0","0,0","0,0","0,824","1,066","-3,329","83,161","42,588","76,427","20,29",96759,"389,12",,,,,,,,,,,,,,"0,1","0,0","0,0","0,0","0,0","0,0","0,0"
1900-01-01 09:51:46.699,COM12,,"-0,021","0,017","1,008","0,0","0,0","0,0","0,824","1,066","-3,329","83,174","42,575","76,427","20,28",96759,"389,12",,,,,,,,,,,,,,"0,1","0,0","0,0","0,0","0,0","0,0","0,0"
1900-01-01 09:51:46.799,COM12,,"-0,021","0,017","1,008","0,0","0,0","0,0","0,824","1,066","-3,329","83,174","42,575","76,427","20,29",96759,"389,12",,,,,,,,,,,,,,"0,1","0,0","0,0","0,0","0,0","0,0","0,0"
1900-01-01 09:51:46.899,COM12,,"-0,021","0,018","1,008","0,0","0,0","0,0","0,824","1,066","-3,329","83,161","42,575","76,427","20,26",96759,"389,12",,,,,,,,,,,,,,"0,1","1,2500000000000012e-05","8,288967171781531e-05","-0,8810100009566023","1,2500000000000014e-06","8,28896717178153e-06","-0,08810100009566024"
1900-01-01 09:51:46.998,COM12,,"-0,022","0,017","1,008","0,0","0,0","0,0","0,824","1,066","-3,329","83,161","42,588","76,427","20,34",96759,"389,12",,,,,,,,,,,,,,"0,099","-7,412499999999973e-05","6,595044672434277e-05","-1,753209900823716","-6,088374999999972e-06","1,4818061397491464e-05","-0,26166878027720814"
1900-01-01 09:51:47.098,COM12,,"-0,021","0,017","1,008","0,0","0,0","0,0","0,824","1,066","-3,329","83,161","42,575","76,440","20,26",96759,"389,12",,,,,,,,,,,,,,"0,1","-6,162499999999972e-05","4,884011844810789e-05","-2,6342199006894877","-1,2250874999999946e-05","1,9702073242302253e-05","-0,5250907703461569"
1900-01-01 09:51:47.198,COM12,,"-0,022","0,017","1,008","0,0","0,0","0,0","0,824","1,066","-3,329","83,161","42,575","76,440","20,29",96759,"389,12",,,,,,,,,,,,,,"0,1","-0,00014912499999999946","3,172979017187301e-05","-3,5152299005552594","-2,7163374999999895e-05","2,2875052259489556e-05","-0,8766137604016828"
1900-01-01 09:51:47.298,COM12,,"-0,021","0,017","1,008","0,0","0,0","0,0","0,824","1,066","-3,329","83,174","42,575","76,440","20,26",96759,"389,12",,,,,,,,,,,,,,"0,1","-0,00013662499999999946","1,4619461895638125e-05","-4,3962399004210315","-4,082587499999984e-05","2,4336998449053367e-05","-1,3162377504437859"
1900-01-01 09:51:47.398,COM12,,"-0,021","0,017","1,009","0,0","0,0","0,0","0,824","1,066","-3,329","83,174","42,575","76,440","20,31",96759,"389,12",,,,,,,,,,,,,,"0,1","-0,00012412499999999945","-2,4897755498142795e-06","-5,277149900286809","-5,323837499999978e-05","2,4088020894071938e-05","-1,8439527404724667"
1900-01-01 09:51:47.498,COM12,,"-0,021","0,016","1,008","0,0","0,0","0,0","0,824","1,066","-3,329","83,174","42,575","76,427","20,29",96759,"389,12",,,,,,,,,,,,,,"0,1","-0,00011162499999999945","-0,0001196001038200997","-6,15815989906175","-6,440087499999972e-05","1,2128010512061968e-05","-2,4597687303786415"
1900-01-01 09:51:47.598,COM12,,"-0,021","0,017","1,008","0,0","0,0","0,0","0,824","1,066","-3,329","83,174","42,575","76,440","20,28",96759,"389,12",,,,,,,,,,,,,,"0,1","-9,912499999999944e-05","-0,00013671043209633458","-7,039169898927522","-7,431337499999967e-05","-1,5430326975714912e-06","-3,1636857202713937"
1900-01-01 09:51:47.698,COM12,,"-0,021","0,018","1,008","0,0","0,0","0,0","0,824","1,066","-3,329","83,174","42,588","76,440","20,29",96759,"389,12",,,,,,,,,,,,,,"0,1","-8,662499999999944e-05","-5,382076037851927e-05","-7,920179899884125","-8,297587499999962e-05","-6,925108735423419e-06","-3,9557037102598063"
1900-01-01 09:51:47.798,COM12,,"-0,022","0,017","1,008","0,0","0,0","0,0","0,824","1,066","-3,329","83,161","42,575","76,440","20,29",96759,"389,12",,,,,,,,,,,,,,"0,1","-0,00017412499999999918","-7,093108865475415e-05","-8,801189899749897","-0,00010038837499999953","-1,4018217600898834e-05","-4,835822700234796"
1900-01-01 09:51:47.898,COM12,,"-0,021","0,017","1,008","0,0","0,0","0,0","0,824","1,066","-3,329","83,174","42,575","76,440","20,34",96759,"389,12",,,,,,,,,,,,,,"0,1","-0,00016162499999999917","-8,804141693098903e-05","-9,682199899615668","-0,00011655087499999945","-2,2822359293997738e-05","-5,804042690196363"
1900-01-01 09:51:47.998,COM12,,"-0,021","0,017","1,008","0,0","0,0","0,0","0,824","1,066","-3,329","83,161","42,575","76,440","20,29",96759,"389,12",,,,,,,,,,,,,,"0,1","-0,00014912499999999917","-0,00010515174520722391","-10,56320989948144","-0,00013146337499999935","-3,333753381472013e-05","-6,860363680144507"
1900-01-01 09:51:48.098,COM12,,"-0,021","0,017","1,009","0,0","0,0","0,0","0,824","1,066","-3,329","83,174","42,575","76,440","20,31",96759,"389,12",,,,,,,,,,,,,,"0,1","-0,00013662499999999916","-0,0001222609826526763","-11,444119899347216","-0,00014512587499999926","-4,556363207998777e-05","-8,00477567007923"
1900-01-01 09:51:48.198,COM12,,"-0,021","0,017","1,008","0,0","0,0","0,0","0,824","1,066","-3,329","83,174","42,575","76,427","20,29",96759,"389,12",,,,,,,,,,,,,,"0,1","-0,00012412499999999915","-0,0001393713109289112","-12,325129899212987","-0,0001575383749999992","-5,9500763172878886e-05","-9,237288660000528"
1900-01-01 09:51:48.298,COM12,,"-0,021","0,017","1,008","0,0","0,0","0,0","0,824","1,066","-3,329","83,174","42,588","76,427","20,31",96759,"389,12",,,,,,,,,,,,,,"0,1","-0,00011162499999999915","-0,0001564816392051461","-13,206139899078758","-0,0001687008749999991","-7,514892709339349e-05","-10,557902649908405"
1900-01-01 09:51:48.398,COM12,,"-0,021","0,017","1,008","0,0","0,0","0,0","0,824","1,066","-3,329","83,174","42,575","76,440","20,33",96759,"389,12",,,,,,,,,,,,,,"0,1","-9,912499999999914e-05","-0,000173591967481381","-14,08714989894453","-0,00017861337499999904","-9,250812384153158e-05","-11,966617639802857"
1900-01-01 09:51:48.498,COM12,,"-0,022","0,017","1,008","0,0","0,0","0,0","0,824","1,066","-3,329","83,161","42,575","76,440","20,31",96759,"389,12",,,,,,,,,,,,,,"0,1","-0,00018662499999999888","-0,00019070229575761589","-14,9681598988103","-0,00019727587499999893","-0,00011157835341729317","-13,463433629683887"
1900-01-01 09:51:48.598,COM12,,"-0,021","0,017","1,008","0,0","0,0","0,0","0,824","1,066","-3,329","83,174","42,588","76,440","20,29",96759,"389,12",,,,,,,,,,,,,,"0,1","-0,00017412499999999888","-0,00020781262403385078","-15,849169898676072","-0,00021468837499999882","-0,00013235961582067825","-15,048350619551496"
1900-01-01 09:51:48.699,COM12,,"-0,021","0,017","1,008","0,0","0,0","0,0","0,824","1,066","-3,329","83,161","42,575","76,440","20,31",96759,"389,12",,,,,,,,,,,,,,"0,101","-0,00016149999999999886","-0,00022509405559284802","-16,7389899985405","-0,0002309998749999987","-0,0001550941154355559","-16,738988609404085"
1900-01-01 09:51:48.799,COM12,,"-0,021","0,017","1,008","0,0","0,0","0,0","0,824","1,066","-3,329","83,174","42,575","76,440","20,33",96759,"389,12",,,,,,,,,,,,,,"0,1","-0,00014899999999999885","-0,0002422043838690829","-17,61999999840627","-0,00024589987499999856","-0,0001793145538224642","-18,50098860924471"
1900-01-01 09:51:48.899,COM12,,"-0,021","0,017","1,008","0,0","0,0","0,0","0,824","1,066","-3,329","83,161","42,588","76,440","20,31",96759,"389,12",,,,,,,,,,,,,,"0,1","-0,00013649999999999885","-0,0002593147121453178","-18,501009998272043","-0,00025954987499999843","-0,000205246025036996","-20,351089609071916"
1900-01-01 09:51:49.000,COM12,,"-0,021","0,017","1,008","0,0","0,0","0,0","0,824","1,066","-3,329","83,174","42,575","76,440","20,28",96759,"389,12",,,,,,,,,,,,,,"0,101","-0,00012387499999999882","-0,000276596143704315","-19,390830098136473","-0,00027206124999999833","-0,0002331822355511318","-22,3095634489837"
1900-01-01 09:51:49.098,COM12,,"-0,021","0,018","1,008","0,0","0,0","0,0","0,824","1,066","-3,329","83,174","42,575","76,440","20,34",96759,"389,12",,,,,,,,,,,,,,"0,098","-0,00011162499999999881","-0,00019536426542085598","-20,25421989907394","-0,0002830004999999982","-0,0002523279335623757","-24,294476999092947"
1900-01-01 09:51:49.198,COM12,,"-0,021","0,017","1,008","0,0","0,0","0,0","0,824","1,066","-3,329","83,161","42,575","76,440","20,33",96759,"389,12",,,,,,,,,,,,,,"0,1","-9,912499999999879e-05","-0,00021247459369709088","-21,135229898939713","-0,0002929129999999981","-0,0002735753929320848","-26,40799998898692"
1900-01-01 09:51:49.298,COM12,,"-0,021","0,017","1,009","0,0","0,0","0,0","0,824","1,066","-3,329","83,174","42,575","76,427","20,31",96759,"389,12",,,,,,,,,,,,,,"0,1","-8,662499999999879e-05","-0,00022958383114254327","-22,01613989880549","-0,000301575499999998","-0,00029653377604633914","-28,60961397886747"
1900-01-01 09:51:49.398,COM12,,"-0,021","0,017","1,008","0,0","0,0","0,0","0,824","1,066","-3,329","83,174","42,575","76,440","20,34",96759,"389,12",,,,,,,,,,,,,,"0,1","-7,412499999999878e-05","-0,00024669415941877814","-22,897149898671262","-0,0003089879999999979","-0,00032120319198821693","-30,899328968734594"
1900-01-01 09:51:49.498,COM12,,"-0,021","0,017","1,008","0,0","0,0","0,0","0,824","1,066","-3,329","83,174","42,575","76,440","20,29",96759,"389,12",,,,,,,,,,,,,,"0,1","-6,162499999999877e-05","-0,00026380448769501303","-23,778159898537034","-0,0003151504999999978","-0,00034758364075771826","-33,277144958588295"
1900-01-01 09:51:49.598,COM12,,"-0,021","0,017","1,008","0,0","0,0","0,0","0,824","1,066","-3,329","83,161","42,575","76,440","20,31",96759,"389,12",,,,,,,,,,,,,,"0,1","-4,912499999999876e-05","-0,00028091481597124793","-24,659169898402805","-0,00032006299999999766","-0,00037567512235484306","-35,743061948428576"
1900-01-01 09:51:49.698,COM12,,"-0,021","0,017","1,008","0,0","0,0","0,0","0,824","1,066","-3,329","83,174","42,575","76,440","20,33",96759,"389,12",,,,,,,,,,,,,,"0,1","-3,662499999999875e-05","-0,0002980251442474828","-25,540179898268576","-0,00032372549999999754","-0,00040547763677959136","-38,297079938255436"
1900-01-01 09:51:49.798,COM12,,"-0,021","0,017","1,009","0,0","0,0","0,0","0,824","1,066","-3,329","83,161","42,588","76,440","20,31",96759,"389,12",,,,,,,,,,,,,,"0,1","-2,4124999999998736e-05","-0,00031513438169293524","-26,421089898134355","-0,0003261379999999974","-0,0004369910749488849","-40,93918892806887"
1900-01-01 09:51:49.898,COM12,,"-0,021","0,017","1,007","0,0","0,0","0,0","0,824","1,066","-3,329","83,161","42,588","76,440","20,29",96759,"389,12",,,,,,,,,,,,,,"0,1","-1,1624999999998724e-05","-0,0003322458007999526","-27,30219989800012","-0,0003273004999999973","-0,00047021565502888016","-43,669408917868886"
1900-01-01 09:51:49.998,COM12,,"-0,021","0,017","1,009","0,0","0,0","0,0","0,824","1,066","-3,329","83,161","42,575","76,440","20,31",96759,"389,12",,,,,,,,,,,,,,"0,1","8,750000000012884e-07","-0,00034935503824540503","-28,183109897865897","-0,00032721299999999715","-0,0005051511588534207","-46,487719907655475"
1900-01-01 09:51:50.098,COM12,,"-0,021","0,017","1,008","0,0","0,0","0,0","0,824","1,066","-3,329","83,174","42,575","76,440","20,31",96759,"389,12",,,,,,,,,,,,,,"0,1","1,3375000000001301e-05","-0,0003664653665216399","-29,06411989773167","-0,000325875499999997","-0,0005417976955055847","-49,39413189742864"
1900-01-01 09:51:50.198,COM12,,"-0,021","0,017","1,008","0,0","0,0","0,0","0,824","1,066","-3,329","83,161","42,575","76,440","20,34",96759,"389,12",,,,,,,,,,,,,,"0,1","2,5875000000001313e-05","-0,0003835756947978748","-29,94512989759744","-0,0003232879999999969","-0,0005801552649853721","-52,388644887188384"
1900-01-01 09:51:50.298,COM12,,"-0,021","0,017","1,008","0,0","0,0","0,0","0,824","1,066","-3,329","83,161","42,575","76,453","20,31",96759,"389,12",,,,,,,,,,,,,,"0,1","3,8375000000001326e-05","-0,0004006860230741097","-30,82613989746321","-0,00031945049999999674","-0,0006202238672927831","-55,471258876934705"
1900-01-01 09:51:50.398,COM12,,"-0,021","0,017","1,008","0,0","0,0","0,0","0,824","1,066","-3,329","83,174","42,575","76,440","20,33",96759,"389,12",,,,,,,,,,,,,,"0,1","5,087500000000134e-05","-0,0004177963513503446","-31,707149897328982","-0,0003143629999999966","-0,0006620035024278175","-58,641973866667605"
1900-01-01 09:51:50.498,COM12,,"-0,021","0,017","1,008","0,0","0,0","0,0","0,824","1,066","-3,329","83,174","42,575","76,440","20,34",96759,"389,12",,,,,,,,,,,,,,"0,1","6,337500000000135e-05","-0,0004349066796265795","-32,58815989719476","-0,00030802549999999645","-0,0007054941703904755","-61,90078985638708"
1900-01-01 09:51:50.598,COM12,,"-0,021","0,017","1,008","0,0","0,0","0,0","0,824","1,066","-3,329","83,161","42,575","76,440","20,31",96759,"389,12",,,,,,,,,,,,,,"0,1","7,587500000000137e-05","-0,0004520170079028144","-33,46916989706053","-0,0003004379999999963","-0,0007506958711807569","-65,24770684609314"
1900-01-01 09:51:50.698,COM12,,"-0,021","0,017","1,009","0,0","0,0","0,0","0,824","1,066","-3,329","83,161","42,575","76,427","20,33",96759,"389,12",,,,,,,,,,,,,,"0,1","8,837500000000138e-05","-0,0004691262453482668","-34,35007989692631","-0,00029160049999999615","-0,0007976084957155836","-68,68271483578577"
1900-01-01 09:51:50.798,COM12,,"-0,021","0,017","1,008","0,0","0,0","0,0","0,824","1,066","-3,329","83,174","42,575","76,440","20,33",96759,"389,12",,,,,,,,,,,,,,"0,1","0,00010087500000000138","-0,0004862365736245017","-35,231089896792085","-0,000281512999999996","-0,0008462321530780338","-72,20582382546499"
1900-01-01 09:51:50.898,COM12,,"-0,022","0,017","1,008","0,0","0,0","0,0","0,824","1,066","-3,329","83,161","42,575","76,440","20,33",96759,"389,12",,,,,,,,,,,,,,"0,1","1,337500000000164e-05","-0,0005033469019007366","-36,11209989665786","-0,0002801754999999958","-0,0008965668432681075","-75,81703381513077"
1900-01-01 09:51:50.999,COM12,,"-0,022","0,017","1,008","0,0","0,0","0,0","0,824","1,066","-3,329","83,174","42,575","76,440","20,33",96759,"389,12",,,,,,,,,,,,,,"0,101","-7,49999999999981e-05","-0,0005206283334597339","-37,00191999652229","-0,0002877504999999956","-0,0009491503049475406","-79,55422773477952"
1900-01-01 09:51:51.098,COM12,,"-0,021","0,017","1,008","0,0","0,0","0,0","0,824","1,066","-3,329","83,174","42,575","76,440","20,34",96759,"389,12",,,,,,,,,,,,,,"0,099","-6,262499999999808e-05","-0,0005375675584532064","-37,8741198963894","-0,00029395037499999543","-0,001002369493234408","-83,30376560452207"
1900-01-01 09:51:51.198,COM12,,"-0,021","0,017","1,009","0,0","0,0","0,0","0,824","1,066","-3,329","83,161","42,562","76,440","20,33",96759,"389,12",,,,,,,,,,,,,,"0,1","-5,012499999999807e-05","-0,0005546767958986588","-38,75502989625518","-0,00029896287499999526","-0,001057837172824274","-87,17926859414759"
1900-01-01 09:51:51.298,COM12,,"-0,021","0,017","1,008","0,0","0,0","0,0","0,824","1,066","-3,329","83,174","42,562","76,440","20,36",96759,"389,12",,,,,,,,,,,,,,"0,1","-3,7624999999998055e-05","-0,0005717871241748936","-39,636039896120955","-0,0003027253749999951","-0,0011150158852417634","-91,14287258375968"
1900-01-01 09:51:51.398,COM12,,"-0,022","0,018","1,008","0,0","0,0","0,0","0,824","1,066","-3,329","83,174","42,575","76,440","20,33",96759,"389,12",,,,,,,,,,,,,,"0,1","-0,0001251249999999978","-0,0004888974524570783","-40,517049897077555","-0,0003152378749999949","-0,0011639056304874713","-95,19457757346744"
1900-01-01 09:51:51.498,COM12,,"-0,021","0,017","1,008","0,0","0,0","0,0","0,824","1,066","-3,329","83,174","42,575","76,440","20,34",96759,"389,12",,,,,,,,,,,,,,"0,1","-0,00011262499999999779","-0,0005060077807333131","-41,39805989694333","-0,0003265003749999947","-0,0012145064085608026","-99,33438356316178"
1900-01-01 09:51:51.598,COM12,,"-0,021","0,017","1,008","0,0","0,0","0,0","0,824","1,066","-3,329","83,187","42,575","76,440","20,33",96759,"389,12",,,,,,,,,,,,,,"0,1","-0,00010012499999999779","-0,000523118109009548","-42,279069896809105","-0,00033651287499999446","-0,0012668182194617574","-103,56229055284268"
1900-01-01 09:51:51.698,COM12,,"-0,021","0,017","1,008","0,0","0,0","0,0","0,824","1,066","-3,329","83,174","42,575","76,440","20,36",96759,"389,12",,,,,,,,,,,,,,"0,1","-8,762499999999778e-05","-0,0005402284372857828","-43,16007989667488","-0,00034527537499999425","-0,0013208410631903357","-107,87829854251017"
1900-01-01 09:51:51.798,COM12,,"-0,021","0,017","1,008","0,0","0,0","0,0","0,824","1,066","-3,329","83,174","42,575","76,440","20,34",96759,"389,12",,,,,,,,,,,,,,"0,1","-7,512499999999777e-05","-0,0005573387655620176","-44,041089896540655","-0,00035278787499999403","-0,0013765749397465375","-112,28240753216423"
1900-01-01 09:51:51.898,COM12,,"-0,021","0,016","1,009","0,0","0,0","0,0","0,824","1,066","-3,329","83,174","42,575","76,440","20,36",96759,"389,12",,,,,,,,,,,,,,"0,1","-6,262499999999777e-05","-0,0006744480030015206","-44,9219998953156","-0,0003590503749999938","-0,0014440197400466897","-116,77460752169578"
1900-01-01 09:51:51.998,COM12,,"-0,021","0,017","1,008","0,0","0,0","0,0","0,824","1,066","-3,329","83,174","42,575","76,440","20,34",96759,"389,12",,,,,,,,,,,,,,"0,1","-5,0124999999997756e-05","-0,0006915583312777554","-45,803009895181376","-0,0003640628749999936","-0,0015131755731744652","-121,35490851121392"
1900-01-01 09:51:52.098,COM12,,"-0,021","0,017","1,008","0,0","0,0","0,0","0,824","1,066","-3,329","83,187","42,575","76,440","20,36",96759,"389,12",,,,,,,,,,,,,,"0,1","-3,762499999999774e-05","-0,0007086686595539903","-46,68401989504715","-0,00036782537499999336","-0,0015840424391298643","-126,02331050071864"
1900-01-01 09:51:52.198,COM12,,"-0,021","0,017","1,008","0,0","0,0","0,0","0,824","1,066","-3,329","83,174","42,562","76,453","20,34",96759,"389,12",,,,,,,,,,,,,,"0,1","-2,512499999999773e-05","-0,0007257789878302251","-47,565029894912925","-0,00037033787499999313","-0,0016566203379128868","-130,77981349020993"
1900-01-01 09:51:52.298,COM12,,"-0,021","0,017","1,008","0,0","0,0","0,0","0,824","1,066","-3,329","83,174","42,575","76,440","20,34",96759,"389,12",,,,,,,,,,,,,,"0,1","-1,2624999999997718e-05","-0,00074288931610646","-48,4460398947787","-0,0003716003749999929","-0,001730909269523533","-135,6244174796878"
1900-01-01 09:51:52.398,COM12,,"-0,021","0,017","1,008","0,0","0,0","0,0","0,824","1,066","-3,329","83,174","42,575","76,453","20,34",96759,"389,12",,,,,,,,,,,,,,"0,1","-1,2499999999770589e-07","-0,0007599996443826948","-49,327049894644475","-0,00037161287499999266","-0,0018069092339618024","-140,55712246915223"
1900-01-01 09:51:52.497,COM12,,"-0,021","0,017","1,008","0,0","0,0","0,0","0,824","1,066","-3,329","83,174","42,575","76,453","20,36",96759,"389,12",,,,,,,,,,,,,,"0,099","1,2250000000002305e-05","-0,0007769388693761673","-50,19924979451159","-0,00037040012499999246","-0,0018838261820300429","-145,5268481988089"
1900-01-01 09:51:52.597,COM12,,"-0,022","0,017","1,008","0,0","0,0","0,0","0,824","1,066","-3,329","83,174","42,575","76,453","20,33",96759,"389,12",,,,,,,,,,,,,,"0,1","-7,524999999999744e-05","-0,0007940491976524022","-51,08025979437736","-0,0003779251249999922","-0,001963231101795283","-150,63487417824663"
1900-01-01 09:51:52.697,COM12,,"-0,021","0,017","1,009","0,0","0,0","0,0","0,824","1,066","-3,329","83,174","42,562","76,440","20,33",96759,"389,12",,,,,,,,,,,,,,"0,1","-6,274999999999743e-05","-0,0008111584350978545","-51,96116979424314","-0,000384200124999992","-0,0020443469453050684","-155,83099115767095"
1900-01-01 09:51:52.797,COM12,,"-0,021","0,017","1,008","0,0","0,0","0,0","0,824","1,066","-3,329","83,174","42,575","76,453","20,34",96759,"389,12",,,,,,,,,,,,,,"0,1","-5,024999999999742e-05","-0,0008282687633740894","-52,842179794108915","-0,00038922512499999174","-0,0021271738216424776","-161,11520913708185"
1900-01-01 09:51:52.897,COM12,,"-0,021","0,018","1,008","0,0","0,0","0,0","0,824","1,066","-3,329","83,174","42,575","76,453","20,36",96759,"389,12",,,,,,,,,,,,,,"0,1","-3,774999999999741e-05","-0,000745379091656274","-53,723189795065515","-0,0003930001249999915","-0,002201711730808105","-166,4875281165884"
1900-01-01 09:51:52.997,COM12,,"-0,021","0,017","1,008","0,0","0,0","0,0","0,824","1,066","-3,329","83,174","42,575","76,466","20,36",96759,"389,12",,,,,,,,,,,,,,"0,1","-2,5249999999997395e-05","-0,0007624894199325089","-54,60419979493129","-0,00039552512499999124","-0,0022779606728013557","-171,94794809608155"
1900-01-01 09:51:53.097,COM12,,"-0,021","0,017","1,008","0,0","0,0","0,0","0,824","1,066","-3,329","83,174","42,575","76,453","20,36",96759,"389,12",,,,,,,,,,,,,,"0,1","-1,2749999999997383e-05","-0,0007795997482087437","-55,485209794797065","-0,000396800124999991","-0,00235592064762223","-177,49646907556127"
1900-01-01 09:51:53.197,COM12,,"-0,021","0,018","1,008","0,0","0,0","0,0","0,824","1,066","-3,329","83,174","42,575","76,453","20,34",96759,"389,12",,,,,,,,,,,,,,"0,1","-2,499999999973701e-07","-0,0006967100764909284","-56,366219795753665","-0,00039682512499999073","-0,0024255916552713233","-183,13309105513662"
1900-01-01 09:51:53.298,COM12,,"-0,022","0,017","1,008","0,0","0,0","0,0","0,824","1,066","-3,329","83,174","42,562","76,453","20,37",96759,"389,12",,,,,,,,,,,,,,"0,101","-8,86249999999971e-05","-0,0007139915080499257","-57,256039895618095","-0,00040577624999999043","-0,0024977047975843656","-188,91595108459404"
1900-01-01 09:51:53.398,COM12,,"-0,021","0,017","1,008","0,0","0,0","0,0","0,824","1,066","-3,329","83,174","42,562","76,440","20,36",96759,"389,12",,,,,,,,,,,,,,"0,1","-7,61249999999971e-05","-0,0007311018363261605","-58,13704989548387","-0,00041338874999999017","-0,0025708149812169816","-194,72965607414244"
1900-01-01 09:51:53.498,COM12,,"-0,021","0,017","1,007","0,0","0,0","0,0","0,824","1,066","-3,329","83,174","42,562","76,453","20,37",96759,"389,12",,,,,,,,,,,,,,"0,1","-6,362499999999709e-05","-0,0007482132554331778","-59,01815989534963","-0,0004197512499999899","-0,0026456363067602993","-200,6314720636774"
1900-01-01 09:51:53.598,COM12,,"-0,021","0,017","1,008","0,0","0,0","0,0","0,824","1,066","-3,329","83,174","42,575","76,440","20,34",96759,"389,12",,,,,,,,,,,,,,"0,1","-5,1124999999997075e-05","-0,0007653235837094127","-59,89916989521541","-0,0004248637499999896","-0,0027221686651312405","-206,62138905319893"
1900-01-01 09:51:53.698,COM12,,"-0,021","0,017","1,008","0,0","0,0","0,0","0,824","1,066","-3,329","83,174","42,575","76,440","20,36",96759,"389,12",,,,,,,,,,,,,,"0,1","-3,862499999999706e-05","-0,0007824339119856475","-60,78017989508118","-0,00042872624999998934","-0,0028004120563298054","-212,69940704270704"
1900-01-01 09:51:53.798,COM12,,"-0,021","0,017","1,007","0,0","0,0","0,0","0,824","1,066","-3,329","83,174","42,575","76,453","20,34",96759,"389,12",,,,,,,,,,,,,,"0,1","-2,612499999999705e-05","-0,0007995453310926648","-61,66128989494695","-0,00043133874999998906","-0,002880366589439072","-218,86553603220173"
1900-01-01 09:51:53.898,COM12,,"-0,022","0,017","1,008","0,0","0,0","0,0","0,824","1,066","-3,329","83,161","42,575","76,453","20,36",96759,"389,12",,,,,,,,,,,,,,"0,1","-0,00011362499999999679","-0,0008166556593688997","-62,54229989481272","-0,00044270124999998874","-0,002962032155375962","-225,119766021683"
1900-01-01 09:51:53.996,COM12,,"-0,021","0,018","1,008","0,0","0,0","0,0","0,824","1,066","-3,329","83,174","42,575","76,453","20,34",96759,"389,12",,,,,,,,,,,,,,"0,098","-0,00010137499999999677","-0,0007354237810854407","-63,40568969575019","-0,0004526359999999884","-0,0030341036859223352","-231,33352361186653"
1900-01-01 09:51:54.096,COM12,,"-0,021","0,017","1,009","0,0","0,0","0,0","0,824","1,066","-3,329","83,174","42,562","76,440","20,34",96759,"389,12",,,,,,,,,,,,,,"0,1","-8,887499999999675e-05","-0,0007525330185308931","-64,28659969561596","-0,0004615234999999881","-0,0031093569877754246","-237,76218358142813"
1900-01-01 09:51:54.196,COM12,,"-0,021","0,017","1,008","0,0","0,0","0,0","0,824","1,066","-3,329","83,174","42,575","76,440","20,36",96759,"389,12",,,,,,,,,,,,,,"0,1","-7,637499999999675e-05","-0,0007696433468071279","-65,16760969548173","-0,0004691609999999878","-0,0031863213224561375","-244,2789445509763"
1900-01-01 09:51:54.296,COM12,,"-0,021","0,017","1,008","0,0","0,0","0,0","0,824","1,066","-3,329","83,174","42,562","76,453","20,33",96759,"389,12",,,,,,,,,,,,,,"0,1","-6,387499999999674e-05","-0,0007867536750833628","-66,0486196953475","-0,0004755484999999875","-0,0032649966899644736","-250,88380652051103"
1900-01-01 09:51:54.396,COM12,,"-0,021","0,017","1,008","0,0","0,0","0,0","0,824","1,066","-3,329","83,174","42,562","76,453","20,36",96759,"389,12",,,,,,,,,,,,,,"0,1","-5,137499999999673e-05","-0,0008038640033595976","-66,92962969521326","-0,0004806859999999872","-0,0033453830903004333","-257,57676949003235"
1900-01-01 09:51:54.496,COM12,,"-0,021","0,016","1,008","0,0","0,0","0,0","0,824","1,066","-3,329","83,174","42,562","76,440","20,37",96759,"389,12",,,,,,,,,,,,,,"0,1","-3,8874999999996717e-05","-0,000920974331629883","-67,81063969398821","-0,00048457349999998686","-0,0034374805234634216","-264,35783345943116"
1900-01-01 09:51:54.596,COM12,,"-0,021","0,018","1,008","0,0","0,0","0,0","0,824","1,066","-3,329","83,174","42,575","76,453","20,39",96759,"389,12",,,,,,,,,,,,,,"0,1","-2,6374999999996704e-05","-0,0008380846599120677","-68,69164969494481","-0,00048721099999998654","-0,0035212889894546285","-271,22699842892564"
1900-01-01 09:51:54.696,COM12,,"-0,021","0,017","1,008","0,0","0,0","0,0","0,824","1,066","-3,329","83,174","42,575","76,440","20,39",96759,"389,12",,,,,,,,,,,,,,"0,1","-1,3874999999996692e-05","-0,0008551949881883025","-69,57265969481058","-0,0004885984999999862","-0,0036068084882734585","-278,1842643984067"
1900-01-01 09:51:54.796,COM12,,"-0,021","0,017","1,008","0,0","0,0","0,0","0,824","1,066","-3,329","83,161","42,562","76,453","20,34",96759,"389,12",,,,,,,,,,,,,,"0,1","-1,3749999999966792e-06","-0,0008723053164645374","-70,45366969467635","-0,0004887359999999858","-0,003694039019919912","-285,22963136787433"
1900-01-01 09:51:54.896,COM12,,"-0,021","0,017","1,008","0,0","0,0","0,0","0,824","1,066","-3,329","83,174","42,562","76,440","20,36",96759,"389,12",,,,,,,,,,,,,,"0,1","1,1125000000003333e-05","-0,0008894156447407722","-71,33467969454212","-0,0004876234999999855","-0,0037829805843939894","-292,36309933732855"
1900-01-01 09:51:54.996,COM12,,"-0,021","0,017","1,008","0,0","0,0","0,0","0,824","1,066","-3,329","83,174","42,575","76,453","20,39",96759,"389,12",,,,,,,,,,,,,,"0,1","2,3625000000003346e-05","-0,0009065259730170071","-72,21568969440789","-0,00048526099999998516","-0,00387363318169569","-299,58466830676934"
1900-01-01 09:51:55.096,COM12,,"-0,021","0,018","1,008","0,0","0,0","0,0","0,824","1,066","-3,329","83,174","42,562","76,453","20,36",96759,"389,12",,,,,,,,,,,,,,"0,1","3,612500000000336e-05","-0,0008236363012991917","-73,09669969536449","-0,0004816484999999848","-0,003955996811825609","-306,8943382763058"
1900-01-01 09:51:55.196,COM12,,"-0,022","0,017","1,008","0,0","0,0","0,0","0,824","1,066","-3,329","83,174","42,562","76,453","20,39",96759,"389,12",,,,,,,,,,,,,,"0,1","-5,1374999999996383e-05","-0,0008407466295754266","-73,97770969523026","-0,00048678599999998445","-0,004040071474783152","-314,29210924582884"
1900-01-01 09:51:55.296,COM12,,"-0,021","0,018","1,008","0,0","0,0","0,0","0,824","1,066","-3,329","83,174","42,562","76,453","20,39",96759,"389,12",,,,,,,,,,,,,,"0,1","-3,887499999999637e-05","-0,0007578569578576113","-74,85871969618687","-0,0004906734999999841","-0,004115857170568914","-321,77798121544754"
1900-01-01 09:51:55.396,COM12,,"-0,021","0,017","1,008","0,0","0,0","0,0","0,824","1,066","-3,329","83,174","42,562","76,453","20,37",96759,"389,12",,,,,,,,,,,,,,"0,1","-2,637499999999636e-05","-0,0007749672861338461","-75,73972969605263","-0,0004933109999999837","-0,004193353899182298","-329,3519541850528"
1900-01-01 09:51:55.496,COM12,,"-0,021","0,017","1,008","0,0","0,0","0,0","0,824","1,066","-3,329","83,174","42,562","76,453","20,37",96759,"389,12",,,,,,,,,,,,,,"0,1","-1,3874999999996346e-05","-0,0007920776144100809","-76,6207396959184","-0,0004946984999999834","-0,004272561660623306","-337,0140281546447"
1900-01-01 09:51:55.596,COM12,,"-0,021","0,017","1,008","0,0","0,0","0,0","0,824","1,066","-3,329","83,174","42,575","76,440","20,39",96759,"389,12",,,,,,,,,,,,,,"0,1","-1,3749999999963336e-06","-0,0008091879426863158","-77,50174969578417","-0,000494835999999983","-0,004353480454891938","-344,7642031242231"
1900-01-01 09:51:55.696,COM12,,"-0,021","0,017","1,007","0,0","0,0","0,0","0,824","1,066","-3,329","83,174","42,562","76,440","20,36",96759,"389,12",,,,,,,,,,,,,,"0,1","1,1125000000003679e-05","-0,0008262993617933331","-78,38285969564994","-0,0004937234999999827","-0,004436110391071272","-352,6024890937881"
1900-01-01 09:51:55.796,COM12,,"-0,021","0,018","1,008","0,0","0,0","0,0","0,824","1,066","-3,329","83,174","42,562","76,453","20,36",96759,"389,12",,,,,,,,,,,,,,"0,1","2,362500000000369e-05","-0,0007434096900755178","-79,26386969660655","-0,0004913609999999823","-0,004510451360078824","-360,52887606344876"
1900-01-01 09:51:55.895,COM12,,"-0,022","0,017","1,008","0,0","0,0","0,0","0,824","1,066","-3,329","83,161","42,549","76,453","20,37",96759,"389,12",,,,,,,,,,,,,,"0,099","-6,299999999999604e-05","-0,0007603489150689903","-80,13606959647366","-0,0004975979999999819","-0,004585725902670654","-368,46234695349966"
1900-01-01 09:51:55.996,COM12,,"-0,021","0,017","1,009","0,0","0,0","0,0","0,824","1,066","-3,329","83,174","42,562","76,453","20,34",96759,"389,12",,,,,,,,,,,,,,"0,101","-5,0374999999996034e-05","-0,0007776292448888972","-81,0257886963381","-0,0005026858749999815","-0,004664266456404433","-376,6459516118298"
1900-01-01 09:51:56.096,COM12,,"-0,021","0,017","1,009","0,0","0,0","0,0","0,824","1,066","-3,329","83,161","42,562","76,453","20,39",96759,"389,12",,,,,,,,,,,,,,"0,1","-3,787499999999602e-05","-0,0007947384823343496","-81,90669869620388","-0,0005064733749999812","-0,004743740304637868","-384,83662148145015"
1900-01-01 09:51:56.196,COM12,,"-0,021","0,017","1,008","0,0","0,0","0,0","0,824","1,066","-3,329","83,161","42,549","76,453","20,39",96759,"389,12",,,,,,,,,,,,,,"0,1","-2,537499999999601e-05","-0,0008118488106105844","-82,78770869606964","-0,0005090108749999807","-0,004824925185698926","-393,1153923510571"
1900-01-01 09:51:56.296,COM12,,"-0,021","0,017","1,009","0,0","0,0","0,0","0,824","1,066","-3,329","83,174","42,562","76,453","20,34",96758,"389,2",,,,,,,,,,,,,,"0,1","-1,2874999999995996e-05","-0,0008289580480560368","-83,66861869593542","-0,0005102983749999804","-0,004907820990504529","-401,48225422065065"
1900-01-01 09:51:56.397,COM12,,"-0,021","0,017","1,009","0,0","0,0","0,0","0,824","1,066","-3,329","83,161","42,575","76,453","20,39",96759,"389,12",,,,,,,,,,,,,,"0,101","-2,4999999999598436e-07","-0,0008462383778759437","-84,55833779579986","-0,00051032362499998","-0,00499329106667","-410,02264633802645"
1900-01-01 09:51:56.497,COM12,,"-0,021","0,017","1,007","0,0","0,0","0,0","0,824","1,066","-3,329","83,161","42,588","76,440","20,36",96758,"389,2",,,,,,,,,,,,,,"0,1","1,2250000000004028e-05","-0,000863349796982961","-85,43944779566563","-0,0005090986249999795","-0,005079626046368296","-418,566591117593"
1900-01-01 09:51:56.595,COM12,,"-0,021","0,016","1,008","0,0","0,0","0,0","0,824","1,066","-3,329","83,161","42,575","76,427","20,36",96759,"389,12",,,,,,,,,,,,,,"0,098","2,4500000000004038e-05","-0,0009781179186878408","-86,30283759446507","-0,0005066976249999791","-0,005175481602399704","-427,0242692018506"
1900-01-01 09:51:56.695,COM12,,"-0,021","0,017","1,008","0,0","0,0","0,0","0,824","1,06","-3,329","83,161","42,575","76,427","20,37",96758,"389,2",,,,,,,,,,,,,,"0,1","0,0001292591512067578","-0,0009952282469640756","-87,18384758819117","-0,0004937717098793034","-0,005275004427096112","-435,7426539606697"
1900-01-01 09:51:56.795,COM12,,"-0,021","0,017","1,009","0,0","0,0","0,0","0,818","1,06","-3,329","83,161","42,562","76,427","20,34",96759,"389,12",,,,,,,,,,,,,,"0,1","0,00023400782974458562","-0,0011045861636155166","-88,06475757529601","-0,0004703709269048448","-0,005385463043457664","-444,5491297181993"
1900-01-01 09:51:56.895,COM12,,"-0,021","0,017","1,008","0,0","0,0","0,0","0,818","1,06","-3,329","83,161","42,562","76,440","20,39",96759,"389,12",,,,,,,,,,,,,,"0,1","0,0003387669802578363","-0,0012139556430732262","-88,94576756239964","-0,0004364942288790612","-0,005506858607764987","-453,4437064744393"
1900-01-01 09:51:56.995,COM12,,"-0,021","0,017","1,008","0,0","0,0","0,0","0,818","1,06","-3,329","83,161","42,549","76,440","20,39",96759,"389,12",,,,,,,,,,,,,,"0,1","0,0004435261307710869","-0,001323325122530936","-89,82677754950326","-0,00039214161580195255","-0,0056391911200180805","-462,4263842293896"
1900-01-01 09:51:57.095,COM12,,"-0,021","0,016","1,008","0,0","0,0","0,0","0,818","1,055","-3,329","83,161","42,536","76,453","20,36",96759,"389,12",,,,,,,,,,,,,,"0,1","0,0006251679036575197","-0,0015326946013201532","-90,70778751254748","-0,00032962482543620055","-0,005792460580150096","-471,49716298064436"
1900-01-01 09:51:57.195,COM12,,"-0,021","0,017","1,008","0,0","0,0","0,0","0,818","1,055","-3,329","83,148","42,549","76,440","20,41",96759,"389,12",,,,,,,,,,,,,,"0,1","0,000806809678763852","-0,0016420640807778629","-91,58879748715451","-0,0002489438575598153","-0,005956666988227882","-480,6560427293598"
1900-01-01 09:51:57.295,COM12,,"-0,021","0,017","1,009","0,0","0,0","0,0","0,813","1,055","-3,329","83,148","42,562","76,427","20,37",96759,"389,12",,,,,,,,,,,,,,"0,1","0,0009884322527725095","-0,0018282958958944701","-92,46970744886652","-0,00015010063228256438","-0,006139496577817329","-489,90301347424645"
1900-01-01 09:51:57.395,COM12,,"-0,021","0,016","1,008","0,0","0,0","0,0","0,813","1,055","-3,329","83,148","42,562","76,440","20,39",96758,"389,2",,,,,,,,,,,,,,"0,1","0,0011700740215071308","-0,0021145479984051832","-93,35071739028517","-3,309323013185128e-05","-0,006350951377657847","-499,238085213275"
1900-01-01 09:51:57.495,COM12,,"-0,021","0,017","1,009","0,0","0,0","0,0","0,813","1,055","-3,329","83,135","42,575","76,427","20,37",96758,"389,2",,,,,,,,,,,,,,"0,1","0,0013516965955157885","-0,0023007798135217905","-94,23162735199718","0,00010207642941972758","-0,006581029359010026","-508,6612479484747"
1900-01-01 09:51:57.595,COM12,,"-0,021","0,017","1,009","0,0","0,0","0,0","0,813","1,055","-3,329","83,148","42,562","76,427","20,36",96759,"389,12",,,,,,,,,,,,,,"0,1","0,0015333191695244461","-0,0024870116286383978","-95,11253731370918","0,0002554083463721722","-0,006829730521873866","-518,1725016798456"
1900-01-01 09:51:57.695,COM12,,"-0,021","0,017","1,009","0,0","0,0","0,0","0,813","1,049","-3,329","83,135","42,562","76,440","20,39",96759,"389,12",,,,,,,,,,,,,,"0,1","0,0018071904178415938","-0,002673243443755005","-95,9934472515716","0,0004361273881563316","-0,007097054866249367","-527,7718464050027"
1900-01-01 09:51:57.799,COM12,,"-0,022","0,017","1,008","0,0","0,0","0,0","0,813","1,049","-3,329","83,148","42,562","76,427","20,41",96759,"389,12",,,,,,,,,,,,,,"0,104","0,0019880473780893053","-0,0028669456325067883","-96,9096976177992","0,0006428843154776193","-0,007395217212030073","-537,8504549572539"
1900-01-01 09:51:57.895,COM12,,"-0,021","0,019","1,008","0,0","0,0","0,0","0,813","1,049","-3,329","83,135","42,575","76,388","20,39",96759,"389,12",,,,,,,,,,,,,,"0,096","0,0022509922718045583","-0,0028537476568450044","-97,75546719709665","0,0008589795735708569","-0,007669176987087194","-547,2349798081751"
1900-01-01 09:51:57.995,COM12,,"-0,022","0,05","1,011","0,0","0,0","0,0","0,818","1,049","-3,329","82,914","43,420","75,725","20,42",96759,"389,12",,,,,,,,,,,,,,"0,1","0,002424804300371773","0,0003369175300558416","-98,63617755910992","0,0011014600036080343","-0,00763548523408161","-557,0985975640862"
1900-01-01 09:51:58.095,COM12,,"-0,022","0,034","1,009","0,0","0,0","0,0","0,857","1,049","-3,329","81,250","50,258","70,551","20,42",96759,"389,12",,,,,,,,,,,,,,"0,1","0,0025986752334423604","0,0025271757330834403","-99,51708644931958","0,0013613275269522703","-0,007382767660773266","-567,0503062090181"
1900-01-01 09:51:58.195,COM12,,"-0,021","0,033","1,011","0,0","0,0","0,0","0,917","1,049","-3,329","77,181","66,326","57,707","20,37",96758,"389,2",,,,,,,,,,,,,,"0,1","0,0028724860449838695","0,0055395958931651265","-100,39779269470729","0,0016485761314506573","-0,006828808071456753","-577,0900854784888"
1900-01-01 09:51:58.295,COM12,,"-0,024","0,035","1,006","-0,061","-0,122","-0,244","0,972","1,055","-3,34","69,537","92,469","34,333","20,41",96758,"389,2",,,,,,,,,,,,,,"0,1","0,0027549440768697663","0,009598739948837216","-101,27899520795037","0,001924070539137634","-0,005868934076573032","-587,2179849992839"
1900-01-01 09:51:58.395,COM12,,"-0,021","0,068","1,009","-0,122","0,061","-0,122","1,038","1,049","-3,334","57,525","125,801","-2,548","20,41",96758,"389,2",,,,,,,,,,,,,,"0,1","0,003029538577029324","0,017971766785266595","-102,15988009193462","0,0022270243968405667","-0,004071757398046372","-597,4339730084773"
1900-01-01 09:51:58.495,COM12,,"-0,021","0,018","1,009","-0,061","0,122","0,061","1,115","1,049","-3,329","39,767","157,924","-58,643","20,34",96759,"389,12",,,,,,,,,,,,,,"0,1","0,0033034063354818385","0,022528698203540542","-103,04077826776711","0,0025573650303887504","-0,001818887577692318","-607,7380508352541"
1900-01-01 09:51:58.595,COM12,,"-0,02","0,0","1,009","-0,061","0,061","-0,061","1,126","1,044","-3,329","20,215","187,525","-122,369","20,42",96760,"389,04",,,,,,,,,,,,,,"0,1","0,0037541502464034323","0,025454774754574836","-103,92168495477684","0,0029327800550290935","0,0007265898977651657","-618,1302193307317"
1900-01-01 09:51:58.695,COM12,,"-0,019","0,051","1,01","-0,061","0,0","-0,061","1,11","1,049","-3,323","-1,157","213,239","-190,892","20,39",96759,"389,12",,,,,,,,,,,,,,"0,1","0,004227168894078684","0,033234343857321005","-104,80246703047459","0,003355496944436962","0,004050024283497267","-628,6104660337792"
1900-01-01 09:51:58.795,COM12,,"-0,02","0,017","1,007","0,183","-0,061","0,183","1,132","1,038","-3,323","-29,549","243,672","-270,751","20,42",96759,"389,12",,,,,,,,,,,,,,"0,1","0,004769760048380616","0,03795377405491519","-105,68356423134743","0,003832472949275024","0,007845401688988786","-639,178822456914"
1900-01-01 09:51:58.895,COM12,,"-0,023","0,021","1,011","0,0","-0,061","0,0","1,143","1,038","-3,318","-64,766","273,689","-349,089","20,39",96759,"389,12",,,,,,,,,,,,,,"0,1","0,0050116335405536805","0,043240123561485364","-106,56425844009335","0,004333636303330392","0,012169414045137323","-649,8352483009234"
1900-01-01 09:51:58.995,COM12,,"-0,021","0,033","1,008","-0,122","0,122","-0,122","1,104","1,044","-3,318","-98,878","291,811","-405,184","20,37",96759,"389,12",,,,,,,,,,,,,,"0,1","0,005361279608473393","0,04912847158326236","-107,44525013211872","0,004869764264177731","0,01708226120346356","-660,5797733141352"
1900-01-01 09:51:59.095,COM12,,"-0,017","-0,007","1,009","-0,488","0,0","0,122","1,082","1,033","-3,307","-129,896","288,847","306,865","20,41",96758,"389,2",,,,,,,,,,,,,,"0,1","0,0062805532894099235","0,05067841963536838","-108,32616167529966","0,0054978195931187235","0,022150103167000397","-671,4123894816652"
1900-01-01 09:51:59.195,COM12,,"-0,018","0,038","1,011","0,0","-0,183","0,0","1,06","1,022","-3,307","-154,271","266,162","379,457","20,45",96758,"389,2",,,,,,,,,,,,,,"0,1","0,0072671848063282545","0,05638928827097281","-109,20685514799614","0,006224538073751549","0,027789031994097678","-682,3330749964648"
1900-01-01 09:51:59.295,COM12,,"-0,02","0,022","1,007","-0,671","0,061","-0,488","1,038","1,016","-3,323","-170,664","220,987","384,891","20,41",96758,"389,2",,,,,,,,,,,,,,"0,1","0,00814819606283977","0,06016320803434053","-110,08795677020625","0,007039357680035526","0,03380535279753173","-693,3418706734855"
1900-01-01 09:51:59.395,COM12,,"-0,021","0,005","1,007","-0,305","0,061","0,061","1,033","1,022","-3,318","-169,702","141,492","385,658","20,41",96758,"389,2",,,,,,,,,,,,,,"0,1","0,008836955396204087","0,06216028835549673","-110,96906506524907","0,007923053219655935","0,0400213816330814","-704,4387771800103"
1900-01-01 09:51:59.495,COM12,,"-0,024","0,024","1,008","-0,122","0,061","0,0","0,989","1,022","-3,323","-144,261","9,672","392,002","20,41",96758,"389,2",,,,,,,,,,,,,,"0,1","0,009225681014460842","0,06538033910029299","-111,85006941397732","0,00884562132110202","0,0465594155431107","-715,6237841214081"
1900-01-01 09:51:59.595,COM12,,"-0,019","0,01","1,01","-0,305","-0,427","-0,061","0,961","1,0","-3,329","-96,811","-128,310","-123,929","20,37",96758,"389,2",,,,,,,,,,,,,,"0,1","0,010452799997406897","0,06676933671630458","-112,73087777376799","0,009890901320842709","0,05323634921474116","-726,8968718987849"
1900-01-01 09:51:59.695,COM12,,"-0,022","-0,013","1,009","-0,488","0,0","0,0","0,912","0,972","-3,334","-42,250","-225,680","-304,109","20,41",96758,"389,2",,,,,,,,,,,,,,"0,1","0,01181038939516624","0,06510509260929583","-113,61179029386012","0,011071940260359334","0,05974685847567074","-738,2580509281709"
1900-01-01 09:51:59.794,COM12,,"-0,02","0,012","1,008","-0,244","0,0","-0,061","0,824","0,983","-3,334","0,039","-258,310","-236,665","20,42",96758,"389,2",,,,,,,,,,,,,,"0,099","0,01318520822724043","0,06459303340680599","-114,48398911182758","0,012377275874856136","0,06614156878294453","-749,5919658502418"
1900-01-01 09:51:59.894,COM12,,"-0,013","0,015","1,01","-0,366","-0,061","0,183","0,764","0,978","-3,329","34,723","-269,126","-127,491","20,45",96758,"389,2",,,,,,,,,,,,,,"0,1","0,015350532685953443","0,06345354347518595","-115,36479611239308","0,013912329143451481","0,07248692313046312","-761,1284454614811"
1900-01-01 09:51:59.994,COM12,,"-0,021","-0,002","1,011","-0,183","0,122","0,061","0,725","0,972","-3,323","68,055","-282,893","-2,002","20,42",96757,"389,29",,,,,,,,,,,,,,"0,1","0,016808285693945303","0,060014835075001834","-116,24550025854728","0,015593157712846011","0,0784884066379633","-772,7529954873359"
1900-01-01 09:52:00.095,COM12,,"-0,021","0,013","1,008","-0,305","0,0","0,366","0,665","0,972","-3,312","97,084","-288,574","107,562","20,41",96758,"389,2",,,,,,,,,,,,,,"0,101","0,018281607373340204","0,057124679274949006","-117,13531454042865","0,01743960005755337","0,08425799924473315","-784,5836622559192"
1900-01-01 09:52:00.195,COM12,,"-0,021","0,018","1,011","-0,305","0,0","-0,183","0,604","0,972","-3,318","118,079","-279,435","182,559","20,42",96758,"389,2",,,,,,,,,,,,,,"0,1","0,019739631064666512","0,053826176137558086","-118,01601716155366","0,01941356316402002","0,08964061685848895","-796,3852639720745"
1900-01-01 09:52:00.295,COM12,,"-0,02","-0,018","1,01","-0,427","0,0","-0,122","0,549","0,961","-3,312","133,224","-261,118","233,155","20,39",96758,"389,2",,,,,,,,,,,,,,"0,1","0,021468546808804945","0,04608205304581872","-118,89679841176304","0,021560417844900516","0,09424882216307083","-808,2749438132508"
1900-01-01 09:52:00.395,COM12,,"-0,019","0,005","1,009","0,0","0,0","0,0","0,494","0,961","-3,307","144,274","-245,206","269,958","20,44",96758,"389,2",,,,,,,,,,,,,,"0,1","0,023297773127722094","0,03979201666061661","-119,77768490881351","0,023890195157672725","0,0982280238291325","-820,2527123041322"
1900-01-01 09:52:00.495,COM12,,"-0,019","0,005","1,009","-0,427","-0,305","-0,244","0,467","0,956","-3,318","157,508","-235,924","306,137","20,42",96758,"389,2",,,,,,,,,,,,,,"0,1","0,025202737468671695","0,03308653582106261","-120,65856818084794","0,026410468904539894","0,10153667741123876","-832,3185691222169"
1900-01-01 09:52:00.595,COM12,,"-0,019","-0,01","1,008","-0,244","-0,061","0,0","0,439","0,945","-3,318","173,992","-233,220","340,314","20,42",96758,"389,2",,,,,,,,,,,,,,"0,1","0,027277372683211717","0,02444996750604545","-121,53953759086679","0,029138206172861066","0,1039816741618433","-844,4725228813036"
1900-01-01 09:52:00.695,COM12,,"-0,013","-0,013","1,008","-0,122","0,061","-0,061","0,401","0,945","-3,312","189,371","-230,581","368,082","20,39",96757,"389,29",,,,,,,,,,,,,,"0,1","0,029953156119632337","0,0149295220534563","-122,42049759371248","0,0321335217848243","0,10547462636718893","-856,7145726406749"
1900-01-01 09:52:00.795,COM12,,"-0,013","0,003","1,005","-0,061","-0,122","0,732","0,324","0,961","-3,23","197,340","-226,902","381,550","20,39",96757,"389,29",,,,,,,,,,,,,,"0,1","0,03239638818260501","0,005825887556628169","-123,30175868542625","0,035373160603084805","0,10605721512285175","-869,0447485092175"
1900-01-01 09:52:00.895,COM12,,"-0,02","-0,033","1,009","0,0","0,0","1,221","0,264","0,956","-3,109","198,393","-226,408","383,214","20,41",96758,"389,2",,,,,,,,,,,,,,"0,1","0,034252246698782234","-0,007793695614672535","-124,18257568035534","0,03879838527296303","0,1052778455613845","-881,463006077253"
1900-01-01 09:52:00.995,COM12,,"-0,019","0,009","1,008","0,0","-0,061","0,061","0,198","0,956","-3,104","198,523","-226,369","383,383","20,39",96758,"389,2",,,,,,,,,,,,,,"0,1","0,03619703804570929","-0,018228713674978966","-125,06352212906673","0,04241808907753396","0,1034549741938866","-893,9693582901597"
1900-01-01 09:52:01.094,COM12,,"-0,02","0,009","1,008","-0,061","0,0","0,0","0,181","0,939","-3,098","198,523","-226,434","383,383","20,41",96759,"389,12",,,,,,,,,,,,,,"0,099","0,03828426679624172","-0,028817302053196336","-125,93565562935039","0,046208231490361885","0,10060206129062017","-906,4369881974653"
1900-01-01 09:52:01.194,COM12,,"-0,019","0,009","1,008","0,0","0,0","0,0","0,181","0,934","-3,098","198,510","-226,512","383,331","20,41",96759,"389,12",,,,,,,,,,,,,,"0,1","0,04056945372780488","-0,03951213275665493","-126,81659814497182","0,05026517686314237","0,09665084801495467","-919,1186480119625"
1900-01-01 09:52:01.294,COM12,,"-0,019","0,009","1,008","0,0","-0,061","0,0","0,187","0,934","-3,098","198,510","-226,538","383,318","20,39",96759,"389,12",,,,,,,,,,,,,,"0,1","0,0428542712964946","-0,05011471176039172","-127,69754177667572","0,05455060399279183","0,0916393768389155","-931,88840218963"
1900-01-01 09:52:01.394,COM12,,"-0,02","0,009","1,008","0,0","-0,061","0,0","0,198","0,934","-3,098","198,510","-226,590","383,318","20,42",96759,"389,12",,,,,,,,,,,,,,"0,1","0,045038412719009865","-0,060548565515592595","-128,57848765982325","0,05905444526469282","0,08558452028735625","-944,7462509556124"
1900-01-01 09:52:01.493,COM12,,"-0,019","0,008","1,009","0,0","-0,061","0,0","0,209","0,928","-3,098","198,497","-226,629","383,305","20,42",96759,"389,12",,,,,,,,,,,,,,"0,099","0,0473905243065632","-0,0708078066244695","-129,45052552984316","0,06374610717104258","0,07857454743153376","-957,5618529830668"
1900-01-01 09:52:01.593,COM12,,"-0,02","0,009","1,009","0,0","0,0","0,0","0,214","0,928","-3,098","198,471","-226,655","383,266","20,44",96759,"389,12",,,,,,,,,,,,,,"0,1","0,04966568738028056","-0,08099421804687283","-130,33137407157312","0,06871267590907064","0,07047512562684648","-970,5949903902242"
1900-01-01 09:52:01.693,COM12,,"-0,019","0,009","1,008","0,0","0,0","0,0","0,225","0,928","-3,098","198,471","-226,694","383,253","20,39",96759,"389,12",,,,,,,,,,,,,,"0,1","0,05204041727907667","-0,09101216169118999","-131,21232430783823","0,07391671763697831","0,06137390945772748","-983,716222821008"
1900-01-01 09:52:01.793,COM12,,"-0,019","0,009","1,008","0,0","0,0","0,0","0,231","0,928","-3,104","198,471","-226,707","383,266","20,42",96759,"389,12",,,,,,,,,,,,,,"0,1","0,05441373832893573","-0,10093810139414303","-132,09327558934064","0,07935809146987188","0,05128009931831318","-996,9255503799421"
1900-01-01 09:52:01.893,COM12,,"-0,02","0,008","1,008","0,0","0,0","0,0","0,236","0,928","-3,104","198,484","-226,720","383,253","20,42",96759,"389,12",,,,,,,,,,,,,,"0,1","0,05668715082538152","-0,11088755053274957","-132,9742269480262","0,08502680655241003","0,04019134426503822","-1010,2229730747448"
1900-01-01 09:52:01.993,COM12,,"-0,019","0,009","1,008","0,0","0,0","0,0","0,247","0,928","-3,104","198,471","-226,733","383,240","20,45",96759,"389,12",,,,,,,,,,,,,,"0,1","0,059059512401236254","-0,12056748285940255","-133,85518096959782","0,09093275779253365","0,02813459597909796","-1023,6084911717046"
1900-01-01 09:52:02.093,COM12,,"-0,019","0,009","1,007","0,0","0,0","0,0","0,253","0,928","-3,104","198,471","-226,746","383,227","20,42",96759,"389,12",,,,,,,,,,,,,,"0,1","0,061431758890052895","-0,13015615892808713","-134,73623599571727","0,09707593368153894","0,015118980086289247","-1037,0821147712763"
1900-01-01 09:52:02.194,COM12,,"-0,019","0,008","1,008","0,0","0,0","0,0","0,258","0,928","-3,104","198,471","-226,772","383,227","20,42",96759,"389,12",,,,,,,,,,,,,,"0,101","0,06382757194818557","-0,13986306305439172","-135,6260004210736","0,10352251844830568","0,0009928107177956825","-1050,7803408138047"
1900-01-01 09:52:02.294,COM12,,"-0,019","0,009","1,008","0,0","0,0","0,0","0,264","0,934","-3,104","198,458","-226,772","383,227","20,44",96758,"389,2",,,,,,,,,,,,,,"0,1","0,0661066610106628","-0,14928197399509402","-136,50695751831628","0,11013318454937196","-0,01393538668171372","-1064,4310365656363"
1900-01-01 09:52:02.394,COM12,,"-0,019","0,008","1,008","0,0","0,0","0,0","0,264","0,934","-3,104","198,458","-226,785","383,227","20,45",96759,"389,12",,,,,,,,,,,,,,"0,1","0,06838614049822411","-0,15880087938659307","-137,38791363710195","0,11697179859919438","-0,029815474620373025","-1078,1698279293464"
1900-01-01 09:52:02.493,COM12,,"-0,018","0,008","1,008","0,0","0,0","0,0","0,269","0,934","-3,104","198,445","-226,824","383,188","20,42",96759,"389,12",,,,,,,,,,,,,,"0,099","0,0707415271733014","-0,16814809810850476","-138,26006078643866","0,12397520978935121","-0,046462136333114995","-1091,857573947204"
1900-01-01 09:52:02.595,COM12,,"-0,019","-0,005","1,008","0,0","0,0","0,0","0,269","0,934","-3,104","198,315","-227,006","382,967","20,42",96759,"389,12",,,,,,,,,,,,,,"0,102","0,07307146756695562","-0,17910489397725513","-139,15862401363103","0,13142849948118068","-0,06473083551879502","-1106,0517535965944"
1900-01-01 09:52:02.693,COM12,,"-0,02","-0,005","1,008","0,0","0,0","0,0","0,242","0,928","-3,104","197,262","-228,475","380,783","20,44",96758,"389,2",,,,,,,,,,,,,,"0,098","0,07530403074478129","-0,19003887095943411","-140,02194440768605","0,13880829449416926","-0,08335464487281957","-1119,7739041485477"
1900-01-01 09:52:02.793,COM12,,"-0,019","-0,003","1,008","0,0","0,0","0,0","0,214","0,928","-3,104","194,129","-231,153","375,453","20,42",96759,"389,12",,,,,,,,,,,,,,"0,1","0,07768305235847944","-0,20142611537214167","-140,9028799139709","0,14657659973001722","-0,10349725641003374","-1133,8641921399449"
1900-01-01 09:52:02.893,COM12,,"-0,017","0,006","1,008","0,0","0,0","0,0","0,192","0,934","-3,104","189,540","-233,818","367,055","20,44",96759,"389,12",,,,,,,,,,,,,,"0,1","0,08016762816438369","-0,21225125108237003","-141,7838206952567","0,1545933625464556","-0,12472238151827074","-1148,0425742094706"
1900-01-01 09:52:02.993,COM12,,"-0,019","0,005","1,008","0,122","0,0","0,0","0,176","0,939","-3,104","183,768","-236,548","356,395","20,42",96760,"389,04",,,,,,,,,,,,,,"0,1","0,08237667944171657","-0,22342347060752202","-142,6647579375821","0,16283103049062725","-0,14706472857902295","-1162,3090500032288"
1900-01-01 09:52:03.093,COM12,,"-0,017","0,016","1,008","0,0","0,0","0,0","0,187","0,934","-3,104","177,229","-237,796","344,188","20,42",96760,"389,04",,,,,,,,,,,,,,"0,1","0,0848576538557137","-0,23332555209721617","-143,54570889839695","0,1713167958761986","-0,17039728378874458","-1176,6636208930686"
1900-01-01 09:52:03.193,COM12,,"-0,021","-0,001","1,007","0,0","0,0","-0,061","0,209","0,934","-3,104","170,599","-238,732","331,643","20,42",96760,"389,04",,,,,,,,,,,,,,"0,1","0,08694418067084965","-0,2445919065411496","-144,4267462500319","0,18001121394328357","-0,19485647444285953","-1191,1062955180719"
1900-01-01 09:52:03.295,COM12,,"-0,021","-0,024","1,007","-0,061","0,0","-0,122","0,198","0,939","-3,104","163,345","-240,786","316,108","20,42",96760,"389,04",,,,,,,,,,,,,,"0,102","0,08900384377415518","-0,2586022667807199","-145,32537664582338","0,1890896060082474","-0,22123390565449297","-1205,9294839359459"
1900-01-01 09:52:03.393,COM12,,"-0,02","0,002","1,007","0,244","-0,061","0,0","0,165","0,934","-3,104","154,388","-246,103","292,877","20,44",96760,"389,04",,,,,,,,,,,,,,"0,098","0,09114807604808103","-0,2700119807896646","-146,18878766970548","0,19802211746095932","-0,2476950797718801","-1220,255985127577"
1900-01-01 09:52:03.493,COM12,,"-0,02","-0,006","1,009","0,305","0,061","0,305","0,132","0,934","-3,104","145,132","-257,517","264,225","20,45",96760,"389,04",,,,,,,,,,,,,,"0,1","0,09334069391679818","-0,2829594992322992","-147,06960281461704","0,20735618685263915","-0,27599102969511","-1234,9629454090389"
1900-01-01 09:52:03.593,COM12,,"-0,021","0,01","1,009","0,0","0,122","-0,061","0,132","0,939","-3,115","134,524","-274,001","229,671","20,42",96759,"389,12",,,,,,,,,,,,,,"0,1","0,09534802916346709","-0,2943082268851912","-147,950437705955","0,21689098976898585","-0,3054218523836291","-1249,7579891796345"
1900-01-01 09:52:03.694,COM12,,"-0,019","0,018","1,006","0,305","0,061","-0,061","0,154","0,939","-3,12","121,537","-289,289","184,808","20,45",96760,"389,04",,,,,,,,,,,,,,"0,101","0,0975729575027316","-0,3046238885141831","-148,84039727250823","0,22674585847676174","-0,3361888651235616","-1264,790869304158"
1900-01-01 09:52:03.794,COM12,,"-0,024","0,03","1,007","0,244","0,0","0,0","0,203","0,934","-3,131","105,976","-297,765","128,557","20,42",96760,"389,04",,,,,,,,,,,,,,"0,1","0,09934385893693357","-0,31288472403019796","-149,72146776220652","0,2366802443704551","-0,3674773375265814","-1279,7630160803785"
1900-01-01 09:52:03.893,COM12,,"-0,018","0,003","1,009","0,122","0,0","0,0","0,225","0,939","-3,131","86,866","-297,726","55,744","20,47",96759,"389,12",,,,,,,,,,,,,,"0,099","0,10162250586224593","-0,32339700584852943","-150,59350349359948","0,24674087245081744","-0,39949364110558583","-1294,6717729262448"
1900-01-01 09:52:03.993,COM12,,"-0,021","0,017","1,009","0,122","-0,122","-0,427","0,242","0,95","-3,137","64,194","-288,795","-33,657","20,45",96759,"389,12",,,,,,,,,,,,,,"0,1","0,10344841884616897","-0,33235601385331337","-151,47436604276925","0,2570857143354343","-0,43272924249091715","-1309,8192095305217"
1900-01-01 09:52:04.093,COM12,,"-0,016","0,017","1,009","0,183","0,122","0,122","0,258","0,956","-3,142","38,779","-281,476","-129,896","20,44",96759,"389,12",,,,,,,,,,,,,,"0,1","0,10568050509633074","-0,34106786755860796","-152,35523028441406","0,26765376484506737","-0,466836029246778","-1325,054732558963"
1900-01-01 09:52:04.193,COM12,,"-0,02","0,01","1,009","0,0","0,061","0,0","0,286","0,945","-3,148","11,856","-275,054","-220,285","20,45",96760,"389,04",,,,,,,,,,,,,,"0,1","0,10768164105361767","-0,3500501783024254","-153,23609250681952","0,2784219289504291","-0,5018410470770205","-1340,378341809645"
1900-01-01 09:52:04.293,COM12,,"-0,02","-0,001","1,008","0,061","0,183","0,183","0,319","0,945","-3,153","-19,175","-260,351","-303,784","20,42",96760,"389,04",,,,,,,,,,,,,,"0,1","0,10968401753691967","-0,3596261569137475","-154,11705004889208","0,28939033070412107","-0,5378036627683952","-1355,7900468145342"
1900-01-01 09:52:04.393,COM12,,"-0,021","0,01","1,009","0,244","-0,061","-0,183","0,335","0,95","-3,148","-59,306","-209,521","-377,910","20,42",96759,"389,12",,,,,,,,,,,,,,"0,1","0,11150591995990614","-0,36785570167332377","-154,9979200075563","0,3005409227001117","-0,5745892329357276","-1371,2898388152898"
1900-01-01 09:52:04.493,COM12,,"-0,024","0,001","1,006","0,0","0,061","0,183","0,357","0,95","-3,142","-103,987","-117,923","224,484","20,42",96759,"389,12",,,,,,,,,,,,,,"0,1","0,11303112650362991","-0,3766502171569773","-155,87908631481895","0,31184403535047467","-0,6122542546514254","-1386,8777474467718"
1900-01-01 09:52:04.593,COM12,,"-0,022","0,042","1,008","0,061","-0,122","-0,122","0,379","0,956","-3,137","-143,221","4,277","368,654","20,44",96760,"389,04",,,,,,,,,,,,,,"0,1","0,11464962982507362","-0,381004488324196","-156,76008759806552","0,32330899833298204","-0,6503547034838449","-1402,5537562065783"
1900-01-01 09:52:04.693,COM12,,"-0,024","0,023","1,008","0,061","0,732","0,549","0,428","0,967","-3,126","-166,192","111,540","383,721","20,45",96760,"389,04",,,,,,,,,,,,,,"0,1","0,11590387681490401","-0,38650625885773865","-157,64107977237697","0,33489938601447244","-0,6890053293696188","-1418,317864183816"
1900-01-01 09:52:04.794,COM12,,"-0,019","0,012","1,008","0,122","0,0","0,0","0,472","0,972","-3,12","-173,563","182,806","385,840","20,47",96760,"389,04",,,,,,,,,,,,,,"0,101","0,11760015010300395","-0,3924890105205752","-158,53087831614994","0,34677700117487587","-0,7286467194321968","-1434,3294828937471"
1900-01-01 09:52:04.894,COM12,,"-0,021","0,006","1,01","0,366","-0,061","0,061","0,516","0,978","-3,115","-169,598","231,023","385,645","20,47",96759,"389,12",,,,,,,,,,,,,,"0,1","0,11898729534930375","-0,39833583410958756","-159,4116685143779","0,35867573070980624","-0,7684803028431556","-1450,270649745185"
1900-01-01 09:52:04.992,COM12,,"-0,021","0,017","1,008","0,122","0,122","0,122","0,549","0,978","-3,115","-157,768","264,134","390,104","20,45",96759,"389,12",,,,,,,,,,,,,,"0,098","0,12034113191069137","-0,40249153209242977","-160,2750472518095","0,370469161637054","-0,8079244729882137","-1465,9776043758623"
1900-01-01 09:52:05.092,COM12,,"-0,023","-0,023","1,008","0,061","0,061","-0,183","0,588","0,983","-3,12","-141,674","285,779","400,660","20,42",96759,"389,12",,,,,,,,,,,,,,"0,1","0,12145773142695383","-0,41013343564721255","-161,15603253535747","0,3826149347797494","-0,848937816552935","-1482,093207629398"
1900-01-01 09:52:05.194,COM12,,"-0,02","0,007","1,009","-0,061","0,061","0,122","0,577","1,0","-3,115","-118,638","297,921","-61,516","20,45",96759,"389,12",,,,,,,,,,,,,,"0,102","0,12262583088832713","-0,415040058811803","-162,0545471740919","0,39512276953035874","-0,8912719025517389","-1498,6227714411552"
1900-01-01 09:52:05.292,COM12,,"-0,022","0,0","1,009","0,244","0,0","0,0","0,56","0,994","-3,126","-88,699","291,772","-341,809","20,45",96759,"389,12",,,,,,,,,,,,,,"0,098","0,12364495279497933","-0,4206969816467248","-162,91782146423097","0,4072399749042667","-0,932500206753118","-1514,58871794465"
1900-01-01 09:52:05.393,COM12,,"-0,023","0,032","1,01","-0,122","0,0","0,0","0,577","0,994","-3,131","-54,210","270,413","-316,329","20,44",96759,"389,12",,,,,,,,,,,,,,"0,101","0,12458157435876717","-0,42303115113383216","-163,80743730628498","0,4198227139145022","-0,975226353017635","-1531,1332691125847"
1900-01-01 09:52:05.493,COM12,,"-0,019","0,039","1,007","0,0","0,0","-0,061","0,632","1,005","-3,137","-24,960","241,930","-250,042","20,45",96759,"389,12",,,,,,,,,,,,,,"0,1","0,12573472409148545","-0,4237970373787486","-164,68854897229357","0,43239618632365073","-1,0176060567555099","-1547,6021240098141"
1900-01-01 09:52:05.592,COM12,,"-0,02","0,015","1,008","0,0","0,061","0,0","0,687","1,011","-3,137","-1,170","216,593","-183,014","20,47",96759,"389,12",,,,,,,,,,,,,,"0,099","0,12669105137923012","-0,42609430033618234","-165,5607453539559","0,4449386004101945","-1,059789392488792","-1563,9926377998559"
1900-01-01 09:52:05.692,COM12,,"-0,019","0,014","1,011","0,0","0,183","0,305","0,709","1,016","-3,148","18,031","192,192","-122,304","20,42",96759,"389,12",,,,,,,,,,,,,,"0,1","0,12767869464078813","-0,4281759942057844","-166,4414524192869","0,4577064698742733","-1,1026069919093704","-1580,6367830417846"
1900-01-01 09:52:05.792,COM12,,"-0,021","0,025","1,008","0,183","-0,244","-0,122","0,758","1,022","-3,142","34,177","168,454","-70,278","20,45",96758,"389,2",,,,,,,,,,,,,,"0,1","0,12836851532753282","-0,42840570531937966","-167,3224624758088","0,4705433214070266","-1,1454475624413083","-1597,3690292893655"
1900-01-01 09:52:05.892,COM12,,"-0,022","0,032","1,009","-0,061","-0,061","-0,183","0,802","1,022","-3,153","48,373","145,860","-27,001","20,45",96758,"389,2",,,,,,,,,,,,,,"0,1","0,12895398713106926","-0,42725925597595943","-168,2033728039292","0,4834387201201335","-1,1881734880389043","-1614,1893665697585"
1900-01-01 09:52:05.992,COM12,,"-0,021","0,02","1,008","0,0","0,0","0,0","0,84","1,022","-3,159","59,943","119,639","8,450","20,45",96758,"389,2",,,,,,,,,,,,,,"0,1","0,12964148173654952","-0,42672829974203264","-169,0843824243359","0,49640286829378844","-1,2308463180131075","-1631,097804812192"
1900-01-01 09:52:06.093,COM12,,"-0,021","0,025","1,007","0,0","-0,061","-0,122","0,873","1,027","-3,164","69,446","92,183","36,036","20,48",96758,"389,2",,,,,,,,,,,,,,"0,101","0,13025538470303064","-0,425174737686081","-169,97430231659186","0,5095586621487945","-1,2737889665194018","-1648,2652093461677"
1900-01-01 09:52:06.193,COM12,,"-0,022","0,032","1,008","0,0","-0,061","-0,061","0,89","1,027","-3,164","76,843","65,949","58,864","20,47",96758,"389,2",,,,,,,,,,,,,,"0,1","0,1307603725256851","-0,42267553391626106","-170,85530989560598","0,5226346994013631","-1,316056519911028","-1665,3507403357282"
1900-01-01 09:52:06.293,COM12,,"-0,021","0,017","1,01","0,183","0,0","-0,061","0,989","1,033","-3,17","81,952","46,059","73,814","20,45",96758,"389,2",,,,,,,,,,,,,,"0,1","0,13127318694020765","-0,42015466198937956","-171,7361161390776","0,5357620180953838","-1,358071986109966","-1682,524351949636"
1900-01-01 09:52:06.393,COM12,,"-0,021","0,019","1,009","-0,122","0,0","0,0","1,055","1,033","-3,175","82,927","41,990","76,700","20,47",96758,"389,2",,,,,,,,,,,,,,"0,1","0,13178301074313525","-0,4164188243657658","-172,61701809100498","0,5489403191696973","-1,3997138685465425","-1699,7860537587364"
1900-01-01 09:52:06.493,COM12,,"-0,02","0,011","1,006","-0,061","0,0","0,0","1,038","1,027","-3,175","82,927","41,834","76,791","20,48",96759,"389,12",,,,,,,,,,,,,,"0,1","0,13248813835328374","-0,41374271193452195","-173,49822396197374","0,5621891330050257","-1,4410881397399946","-1717,1358761549338"
1900-01-01 09:52:06.593,COM12,,"-0,021","0,016","1,008","0,0","0,0","0,0","1,033","1,027","-3,175","82,823","42,146","76,596","20,48",96758,"389,2",,,,,,,,,,,,,,"0,1","0,13309199388579596","-0,41064450060282465","-174,37922831398203","0,5754983323936053","-1,482152589800277","-1734,5737989863321"
1900-01-01 09:52:06.693,COM12,,"-0,021","0,016","1,008","0,0","0,0","0,0","1,022","1,027","-3,175","82,797","42,237","76,544","20,48",96758,"389,2",,,,,,,,,,,,,,"0,1","0,13369630442917899","-0,40771542944928946","-175,26023324425395","0,5888679628365232","-1,5229241327452059","-1752,0998223107574"
1900-01-01 09:52:06.793,COM12,,"-0,021","0,016","1,008","0,0","0,0","0,0","1,011","1,027","-3,175","82,797","42,289","76,518","20,47",96758,"389,2",,,,,,,,,,,,,,"0,1","0,13430106996161945","-0,4049554985818769","-176,1412387203168","0,6022980698326852","-1,5634196826033935","-1769,7139461827892"
1900-01-01 09:52:06.893,COM12,,"-0,021","0,017","1,009","0,0","0,0","0,0","1,0","1,033","-3,175","82,797","42,315","76,505","20,47",96758,"389,2",,,,,,,,,,,,,,"0,1","0,13481370633178655","-0,4022652631461651","-177,0221444633732","0,6157794404658639","-1,60364620891801","-1787,4161606291266"
1900-01-01 09:52:06.992,COM12,,"-0,021","0,016","1,008","0,0","0,0","0,0","0,983","1,033","-3,175","82,797","42,341","76,505","20,45",96758,"389,2",,,,,,,,,,,,,,"0,099","0,1353222347907566","-0,3999594110423957","-177,8943411736882","0,6291763417101488","-1,6432421906112071","-1805,0277004053216"
1900-01-01 09:52:07.092,COM12,,"-0,021","0,017","1,009","0,0","0,0","0,0","0,972","1,033","-3,175","82,797","42,354","76,505","20,50",96758,"389,2",,,,,,,,,,,,,,"0,1","0,1358360289355616","-0,39769966618592145","-178,77524812557428","0,642759944603705","-1,6830121572297994","-1822,905225217879"
1900-01-01 09:52:07.192,COM12,,"-0,021","0,017","1,007","0,0","0,0","0,0","0,961","1,033","-3,175","82,797","42,354","76,492","20,45",96758,"389,2",,,,,,,,,,,,,,"0,1","0,1363503917991483","-0,39560856643578024","-179,65635549419923","0,6563949837836198","-1,7225730138733775","-1840,8708607672988"
